Ctx_Color_List,stim_key_map_ctx1,stim_key_map_ctx2,stim_key_remap_ctx1,stim_key_remap_ctx2,Import_File.thisRepN,Import_File.thisTrialN,Import_File.thisN,Import_File.thisIndex,Import_File.ran,Stim,Ctx_Color,Key,KeyNum,imStim,X_Pos,Y_Pos,Hand,Check,Cross,participant,session,date,expName,psychopyVersion,OS,frameRate,Instr_RT_Old_Press.keys,Instr_RT_Old_Press.rt,Instr_Block_Num_Press.keys,Instr_Block_Num_Press.rt,RT_Press.keys,RT_Press.corr,RT_Press.rt,Symbol,Shape,Ctx,Color,Stim_Num,Key_Num,Stim_Type,True_Key,Block_Type,Remap,Repeat_Count,Trial_Count,Grp,Block_Num,Prep_Time,Ctx_Prep_Time,Actual_Press,RT,Correct,Session,RT_Old_Iter.thisRepN,RT_Old_Iter.thisTrialN,RT_Old_Iter.thisN,RT_Old_Iter.thisIndex,RT_Old_Iter.ran,RT_Old_Block.thisRepN,RT_Old_Block.thisTrialN,RT_Old_Block.thisN,RT_Old_Block.thisIndex,RT_Old_Block.ran,Instr_TR_Old_Press.keys,Instr_TR_Old_Press.rt,TR_Press.keys,TR_Press.corr,TR_Press.rt,TR_Feedback_Old_Bool.thisRepN,TR_Feedback_Old_Bool.thisTrialN,TR_Feedback_Old_Bool.thisN,TR_Feedback_Old_Bool.thisIndex,TR_Feedback_Old_Bool.ran,TR_Old_Iter.thisRepN,TR_Old_Iter.thisTrialN,TR_Old_Iter.thisN,TR_Old_Iter.thisIndex,TR_Old_Iter.ran,TR_Old_Block.thisRepN,TR_Old_Block.thisTrialN,TR_Old_Block.thisN,TR_Old_Block.thisIndex,TR_Old_Block.ran,TR_Penalty_Press.keys,TR_Penalty_Press.rt,TR_Penalty_Old_Bool.thisRepN,TR_Penalty_Old_Bool.thisTrialN,TR_Penalty_Old_Bool.thisN,TR_Penalty_Old_Bool.thisIndex,TR_Penalty_Old_Bool.ran,Instr_End_Exp_Key.keys,Instr_End_Exp_Key.rt
"[[1,-1,-1],[-1,1,-1]]","[1,0,2]","[0,2,1]","[0,2,1]","[1,0,2]",0,0,0,0,1,0,"[1, -1, -1]",h,0,media/dcnb.png,-0.038,0.075,media/hand.png,media/check.png,media/cross.png,1,5,2021-01-11_13h58.32.437,CL_C2S3,2020.1.3,Win32,60,,,,,,,,,,,,,,,,,,,,,,,,,,,,,,,,,,,,,,,,,,,,,,,,,,,,,,,,,,,,,,,,,,
"[[1,-1,-1],[-1,1,-1],[1,-1,-1],[-1,1,-1]]","[1,0,2]","[0,2,1]","[0,2,1]","[1,0,2]",0,1,1,1,1,1,"[-1, 1, -1]",u,1,media/dfnb.png,0.014,0.1,,,,1,5,2021-01-11_13h58.32.437,CL_C2S3,2020.1.3,Win32,60,,,,,,,,,,,,,,,,,,,,,,,,,,,,,,,,,,,,,,,,,,,,,,,,,,,,,,,,,,,,,,,,,,
"[[1,-1,-1],[-1,1,-1],[1,-1,-1],[-1,1,-1],[1,-1,-1],[-1,1,-1]]","[1,0,2]","[0,2,1]","[0,2,1]","[1,0,2]",0,2,2,2,1,2,,i,0,media/dknb.png,0.057,0.08,,,,1,5,2021-01-11_13h58.32.437,CL_C2S3,2020.1.3,Win32,60,,,,,,,,,,,,,,,,,,,,,,,,,,,,,,,,,,,,,,,,,,,,,,,,,,,,,,,,,,,,,,,,,,
,,,,,,,,,,,,,,,,,,,,1,5,2021-01-11_13h58.32.437,CL_C2S3,2020.1.3,Win32,60,h,281.91494,h,0.91699,h,1,0.871385,0,media/dcnb.png,2,"[-1,1,-1]",3,0,Symb,h,RT,0,0,0,1,1,99,99,h,0.871385,1,5,0,0,0,0,1,,,,,,,,,,,,,,,,,,,,,,,,,,,,,,,,,,
,,,,,,,,,,,,,,,,,,,,1,5,2021-01-11_13h58.32.437,CL_C2S3,2020.1.3,Win32,60,,,,,i,1,0.684505,1,media/dfnb.png,2,"[-1,1,-1]",4,1,Symb,i,RT,0,0,1,1,1,99,99,i,0.684505,1,5,1,0,1,0,1,,,,,,,,,,,,,,,,,,,,,,,,,,,,,,,,,,
,,,,,,,,,,,,,,,,,,,,1,5,2021-01-11_13h58.32.437,CL_C2S3,2020.1.3,Win32,60,,,,,i,1,0.42273,2,media/dknb.png,1,"[1,-1,-1]",2,0,Symb,i,RT,0,0,2,1,1,99,99,i,0.42273,1,5,2,0,2,0,1,,,,,,,,,,,,,,,,,,,,,,,,,,,,,,,,,,
,,,,,,,,,,,,,,,,,,,,1,5,2021-01-11_13h58.32.437,CL_C2S3,2020.1.3,Win32,60,,,,,i,1,0.676975,1,media/dfnb.png,2,"[-1,1,-1]",4,1,Symb,i,RT,0,0,3,1,1,99,99,i,0.676975,1,5,3,0,3,0,1,,,,,,,,,,,,,,,,,,,,,,,,,,,,,,,,,,
,,,,,,,,,,,,,,,,,,,,1,5,2021-01-11_13h58.32.437,CL_C2S3,2020.1.3,Win32,60,,,,,i,0,0.502875,2,media/dknb.png,2,"[-1,1,-1]",5,0,Symb,u,RT,0,0,4,1,1,99,99,i,0.502875,0,5,4,0,4,0,1,,,,,,,,,,,,,,,,,,,,,,,,,,,,,,,,,,
,,,,,,,,,,,,,,,,,,,,1,5,2021-01-11_13h58.32.437,CL_C2S3,2020.1.3,Win32,60,,,,,h,1,0.688935,1,media/dfnb.png,1,"[1,-1,-1]",1,1,Symb,h,RT,0,0,5,1,1,99,99,h,0.688935,1,5,5,0,5,0,1,,,,,,,,,,,,,,,,,,,,,,,,,,,,,,,,,,
,,,,,,,,,,,,,,,,,,,,1,5,2021-01-11_13h58.32.437,CL_C2S3,2020.1.3,Win32,60,,,,,i,1,0.52307,2,media/dknb.png,1,"[1,-1,-1]",2,0,Symb,i,RT,0,0,6,1,1,99,99,i,0.52307,1,5,6,0,6,0,1,,,,,,,,,,,,,,,,,,,,,,,,,,,,,,,,,,
,,,,,,,,,,,,,,,,,,,,1,5,2021-01-11_13h58.32.437,CL_C2S3,2020.1.3,Win32,60,,,,,h,1,0.72326,1,media/dfnb.png,1,"[1,-1,-1]",1,1,Symb,h,RT,0,0,7,1,1,99,99,h,0.72326,1,5,7,0,7,0,1,,,,,,,,,,,,,,,,,,,,,,,,,,,,,,,,,,
,,,,,,,,,,,,,,,,,,,,1,5,2021-01-11_13h58.32.437,CL_C2S3,2020.1.3,Win32,60,,,,,u,1,0.520835,0,media/dcnb.png,1,"[1,-1,-1]",0,0,Symb,u,RT,0,0,8,1,1,99,99,u,0.520835,1,5,8,0,8,0,1,,,,,,,,,,,,,,,,,,,,,,,,,,,,,,,,,,
,,,,,,,,,,,,,,,,,,,,1,5,2021-01-11_13h58.32.437,CL_C2S3,2020.1.3,Win32,60,,,,,u,1,0.550605,0,media/dcnb.png,1,"[1,-1,-1]",0,0,Symb,u,RT,0,0,9,1,1,99,99,u,0.550605,1,5,9,0,9,0,1,,,,,,,,,,,,,,,,,,,,,,,,,,,,,,,,,,
,,,,,,,,,,,,,,,,,,,,1,5,2021-01-11_13h58.32.437,CL_C2S3,2020.1.3,Win32,60,,,,,h,1,0.561685,0,media/dcnb.png,2,"[-1,1,-1]",3,0,Symb,h,RT,0,0,10,1,1,99,99,h,0.561685,1,5,10,0,10,0,1,,,,,,,,,,,,,,,,,,,,,,,,,,,,,,,,,,
,,,,,,,,,,,,,,,,,,,,1,5,2021-01-11_13h58.32.437,CL_C2S3,2020.1.3,Win32,60,,,,,u,1,0.35407,2,media/dknb.png,2,"[-1,1,-1]",5,0,Symb,u,RT,0,0,11,1,1,99,99,u,0.35407,1,5,11,0,11,0,1,,,,,,,,,,,,,,,,,,,,,,,,,,,,,,,,,,
,,,,,,,,,,,,,,,,,,,,1,5,2021-01-11_13h58.32.437,CL_C2S3,2020.1.3,Win32,60,,,,,i,1,0.803465,1,media/dfnb.png,2,"[-1,1,-1]",4,1,Symb,i,RT,0,0,12,1,1,99,99,i,0.803465,1,5,12,0,12,0,1,,,,,,,,,,,,,,,,,,,,,,,,,,,,,,,,,,
,,,,,,,,,,,,,,,,,,,,1,5,2021-01-11_13h58.32.437,CL_C2S3,2020.1.3,Win32,60,,,,,i,1,0.674885,2,media/dknb.png,1,"[1,-1,-1]",2,0,Symb,i,RT,0,0,13,1,1,99,99,i,0.674885,1,5,13,0,13,0,1,,,,,,,,,,,,,,,,,,,,,,,,,,,,,,,,,,
,,,,,,,,,,,,,,,,,,,,1,5,2021-01-11_13h58.32.437,CL_C2S3,2020.1.3,Win32,60,,,,,u,1,0.648175,0,media/dcnb.png,1,"[1,-1,-1]",0,0,Symb,u,RT,0,0,14,1,1,99,99,u,0.648175,1,5,14,0,14,0,1,,,,,,,,,,,,,,,,,,,,,,,,,,,,,,,,,,
,,,,,,,,,,,,,,,,,,,,1,5,2021-01-11_13h58.32.437,CL_C2S3,2020.1.3,Win32,60,,,,,i,1,0.80079,1,media/dfnb.png,2,"[-1,1,-1]",4,1,Symb,i,RT,0,0,15,1,1,99,99,i,0.80079,1,5,15,0,15,0,1,,,,,,,,,,,,,,,,,,,,,,,,,,,,,,,,,,
,,,,,,,,,,,,,,,,,,,,1,5,2021-01-11_13h58.32.437,CL_C2S3,2020.1.3,Win32,60,,,,,u,1,0.87033,0,media/dcnb.png,1,"[1,-1,-1]",0,0,Symb,u,RT,0,0,16,1,1,99,99,u,0.87033,1,5,16,0,16,0,1,,,,,,,,,,,,,,,,,,,,,,,,,,,,,,,,,,
,,,,,,,,,,,,,,,,,,,,1,5,2021-01-11_13h58.32.437,CL_C2S3,2020.1.3,Win32,60,,,,,h,1,0.584415,0,media/dcnb.png,2,"[-1,1,-1]",3,0,Symb,h,RT,0,0,17,1,1,99,99,h,0.584415,1,5,17,0,17,0,1,,,,,,,,,,,,,,,,,,,,,,,,,,,,,,,,,,
,,,,,,,,,,,,,,,,,,,,1,5,2021-01-11_13h58.32.437,CL_C2S3,2020.1.3,Win32,60,,,,,u,1,0.85195,2,media/dknb.png,2,"[-1,1,-1]",5,0,Symb,u,RT,0,0,18,1,1,99,99,u,0.85195,1,5,18,0,18,0,1,,,,,,,,,,,,,,,,,,,,,,,,,,,,,,,,,,
,,,,,,,,,,,,,,,,,,,,1,5,2021-01-11_13h58.32.437,CL_C2S3,2020.1.3,Win32,60,,,,,u,1,0.535775,2,media/dknb.png,2,"[-1,1,-1]",5,0,Symb,u,RT,0,0,19,1,1,99,99,u,0.535775,1,5,19,0,19,0,1,,,,,,,,,,,,,,,,,,,,,,,,,,,,,,,,,,
,,,,,,,,,,,,,,,,,,,,1,5,2021-01-11_13h58.32.437,CL_C2S3,2020.1.3,Win32,60,,,,,h,1,0.550225,0,media/dcnb.png,2,"[-1,1,-1]",3,0,Symb,h,RT,0,0,20,1,1,99,99,h,0.550225,1,5,20,0,20,0,1,,,,,,,,,,,,,,,,,,,,,,,,,,,,,,,,,,
,,,,,,,,,,,,,,,,,,,,1,5,2021-01-11_13h58.32.437,CL_C2S3,2020.1.3,Win32,60,,,,,h,1,0.650665,1,media/dfnb.png,1,"[1,-1,-1]",1,1,Symb,h,RT,0,0,21,1,1,99,99,h,0.650665,1,5,21,0,21,0,1,,,,,,,,,,,,,,,,,,,,,,,,,,,,,,,,,,
,,,,,,,,,,,,,,,,,,,,1,5,2021-01-11_13h58.32.437,CL_C2S3,2020.1.3,Win32,60,,,,,i,1,0.65072,2,media/dknb.png,1,"[1,-1,-1]",2,0,Symb,i,RT,0,0,22,1,1,99,99,i,0.65072,1,5,22,0,22,0,1,,,,,,,,,,,,,,,,,,,,,,,,,,,,,,,,,,
,,,,,,,,,,,,,,,,,,,,1,5,2021-01-11_13h58.32.437,CL_C2S3,2020.1.3,Win32,60,,,,,h,1,0.90386,1,media/dfnb.png,1,"[1,-1,-1]",1,1,Symb,h,RT,0,0,23,1,1,99,99,h,0.90386,1,5,23,0,23,0,1,,,,,,,,,,,,,,,,,,,,,,,,,,,,,,,,,,
,,,,,,,,,,,,,,,,,,,,1,5,2021-01-11_13h58.32.437,CL_C2S3,2020.1.3,Win32,60,,,,,i,1,1.750965,2,media/dknb.png,1,"[1,-1,-1]",2,0,Symb,i,RT,0,0,24,1,1,99,99,i,1.750965,1,5,24,0,24,0,1,,,,,,,,,,,,,,,,,,,,,,,,,,,,,,,,,,
,,,,,,,,,,,,,,,,,,,,1,5,2021-01-11_13h58.32.437,CL_C2S3,2020.1.3,Win32,60,,,,,u,1,1.37885,2,media/dknb.png,2,"[-1,1,-1]",5,0,Symb,u,RT,0,0,25,1,1,99,99,u,1.37885,1,5,25,0,25,0,1,,,,,,,,,,,,,,,,,,,,,,,,,,,,,,,,,,
,,,,,,,,,,,,,,,,,,,,1,5,2021-01-11_13h58.32.437,CL_C2S3,2020.1.3,Win32,60,,,,,h,1,0.72038,0,media/dcnb.png,2,"[-1,1,-1]",3,0,Symb,h,RT,0,0,26,1,1,99,99,h,0.72038,1,5,26,0,26,0,1,,,,,,,,,,,,,,,,,,,,,,,,,,,,,,,,,,
,,,,,,,,,,,,,,,,,,,,1,5,2021-01-11_13h58.32.437,CL_C2S3,2020.1.3,Win32,60,,,,,i,1,0.65061,1,media/dfnb.png,2,"[-1,1,-1]",4,1,Symb,i,RT,0,0,27,1,1,99,99,i,0.65061,1,5,27,0,27,0,1,,,,,,,,,,,,,,,,,,,,,,,,,,,,,,,,,,
,,,,,,,,,,,,,,,,,,,,1,5,2021-01-11_13h58.32.437,CL_C2S3,2020.1.3,Win32,60,,,,,h,1,0.466945,1,media/dfnb.png,1,"[1,-1,-1]",1,1,Symb,h,RT,0,0,28,1,1,99,99,h,0.466945,1,5,28,0,28,0,1,,,,,,,,,,,,,,,,,,,,,,,,,,,,,,,,,,
,,,,,,,,,,,,,,,,,,,,1,5,2021-01-11_13h58.32.437,CL_C2S3,2020.1.3,Win32,60,,,,,u,1,0.54988,0,media/dcnb.png,1,"[1,-1,-1]",0,0,Symb,u,RT,0,0,29,1,1,99,99,u,0.54988,1,5,29,0,29,0,1,,,,,,,,,,,,,,,,,,,,,,,,,,,,,,,,,,
,,,,,,,,,,,,,,,,,,,,1,5,2021-01-11_13h58.32.437,CL_C2S3,2020.1.3,Win32,60,,,,,u,1,0.3421,0,media/dcnb.png,1,"[1,-1,-1]",0,0,Symb,u,RT,0,0,30,1,1,99,99,u,0.3421,1,5,30,0,30,0,1,,,,,,,,,,,,,,,,,,,,,,,,,,,,,,,,,,
,,,,,,,,,,,,,,,,,,,,1,5,2021-01-11_13h58.32.437,CL_C2S3,2020.1.3,Win32,60,,,,,h,1,0.600205,0,media/dcnb.png,2,"[-1,1,-1]",3,0,Symb,h,RT,0,0,31,1,1,99,99,h,0.600205,1,5,31,0,31,0,1,,,,,,,,,,,,,,,,,,,,,,,,,,,,,,,,,,
,,,,,,,,,,,,,,,,,,,,1,5,2021-01-11_13h58.32.437,CL_C2S3,2020.1.3,Win32,60,,,,,i,1,0.51117,2,media/dknb.png,1,"[1,-1,-1]",2,0,Symb,i,RT,0,0,32,1,1,99,99,i,0.51117,1,5,32,0,32,0,1,,,,,,,,,,,,,,,,,,,,,,,,,,,,,,,,,,
,,,,,,,,,,,,,,,,,,,,1,5,2021-01-11_13h58.32.437,CL_C2S3,2020.1.3,Win32,60,,,,,u,1,0.82139,0,media/dcnb.png,1,"[1,-1,-1]",0,0,Symb,u,RT,0,0,33,1,1,99,99,u,0.82139,1,5,33,0,33,0,1,,,,,,,,,,,,,,,,,,,,,,,,,,,,,,,,,,
,,,,,,,,,,,,,,,,,,,,1,5,2021-01-11_13h58.32.437,CL_C2S3,2020.1.3,Win32,60,,,,,u,1,0.550165,2,media/dknb.png,2,"[-1,1,-1]",5,0,Symb,u,RT,0,0,34,1,1,99,99,u,0.550165,1,5,34,0,34,0,1,,,,,,,,,,,,,,,,,,,,,,,,,,,,,,,,,,
,,,,,,,,,,,,,,,,,,,,1,5,2021-01-11_13h58.32.437,CL_C2S3,2020.1.3,Win32,60,,,,,i,1,0.50038,2,media/dknb.png,1,"[1,-1,-1]",2,0,Symb,i,RT,0,0,35,1,1,99,99,i,0.50038,1,5,35,0,35,0,1,,,,,,,,,,,,,,,,,,,,,,,,,,,,,,,,,,
,,,,,,,,,,,,,,,,,,,,1,5,2021-01-11_13h58.32.437,CL_C2S3,2020.1.3,Win32,60,,,,,h,1,0.51942,1,media/dfnb.png,1,"[1,-1,-1]",1,1,Symb,h,RT,0,0,36,1,1,99,99,h,0.51942,1,5,36,0,36,0,1,,,,,,,,,,,,,,,,,,,,,,,,,,,,,,,,,,
,,,,,,,,,,,,,,,,,,,,1,5,2021-01-11_13h58.32.437,CL_C2S3,2020.1.3,Win32,60,,,,,u,0,0.46757,1,media/dfnb.png,2,"[-1,1,-1]",4,1,Symb,i,RT,0,0,37,1,1,99,99,u,0.46757,0,5,37,0,37,0,1,,,,,,,,,,,,,,,,,,,,,,,,,,,,,,,,,,
,,,,,,,,,,,,,,,,,,,,1,5,2021-01-11_13h58.32.437,CL_C2S3,2020.1.3,Win32,60,,,,,u,1,0.53277,2,media/dknb.png,2,"[-1,1,-1]",5,0,Symb,u,RT,0,0,38,1,1,99,99,u,0.53277,1,5,38,0,38,0,1,,,,,,,,,,,,,,,,,,,,,,,,,,,,,,,,,,
,,,,,,,,,,,,,,,,,,,,1,5,2021-01-11_13h58.32.437,CL_C2S3,2020.1.3,Win32,60,,,,,h,1,0.48332,0,media/dcnb.png,2,"[-1,1,-1]",3,0,Symb,h,RT,0,0,39,1,1,99,99,h,0.48332,1,5,39,0,39,0,1,,,,,,,,,,,,,,,,,,,,,,,,,,,,,,,,,,
,,,,,,,,,,,,,,,,,,,,1,5,2021-01-11_13h58.32.437,CL_C2S3,2020.1.3,Win32,60,,,,,i,1,0.955545,1,media/dfnb.png,2,"[-1,1,-1]",4,1,Symb,i,RT,0,0,40,1,1,99,99,i,0.955545,1,5,40,0,40,0,1,,,,,,,,,,,,,,,,,,,,,,,,,,,,,,,,,,
,,,,,,,,,,,,,,,,,,,,1,5,2021-01-11_13h58.32.437,CL_C2S3,2020.1.3,Win32,60,,,,,h,1,0.435575,1,media/dfnb.png,1,"[1,-1,-1]",1,1,Symb,h,RT,0,0,41,1,1,99,99,h,0.435575,1,5,41,0,41,0,1,,,,,,,,,,,,,,,,,,,,,,,,,,,,,,,,,,
,,,,,,,,,,,,,,,,,,,,1,5,2021-01-11_13h58.32.437,CL_C2S3,2020.1.3,Win32,60,,,,,h,1,0.472635,1,media/dfnb.png,1,"[1,-1,-1]",1,1,Symb,h,RT,0,0,42,1,1,99,99,h,0.472635,1,5,42,0,42,0,1,,,,,,,,,,,,,,,,,,,,,,,,,,,,,,,,,,
,,,,,,,,,,,,,,,,,,,,1,5,2021-01-11_13h58.32.437,CL_C2S3,2020.1.3,Win32,60,,,,,u,1,0.49747,0,media/dcnb.png,1,"[1,-1,-1]",0,0,Symb,u,RT,0,0,43,1,1,99,99,u,0.49747,1,5,43,0,43,0,1,,,,,,,,,,,,,,,,,,,,,,,,,,,,,,,,,,
,,,,,,,,,,,,,,,,,,,,1,5,2021-01-11_13h58.32.437,CL_C2S3,2020.1.3,Win32,60,,,,,h,1,0.476915,0,media/dcnb.png,2,"[-1,1,-1]",3,0,Symb,h,RT,0,0,44,1,1,99,99,h,0.476915,1,5,44,0,44,0,1,,,,,,,,,,,,,,,,,,,,,,,,,,,,,,,,,,
,,,,,,,,,,,,,,,,,,,,1,5,2021-01-11_13h58.32.437,CL_C2S3,2020.1.3,Win32,60,,,,,i,1,0.817015,1,media/dfnb.png,2,"[-1,1,-1]",4,1,Symb,i,RT,0,0,45,1,1,99,99,i,0.817015,1,5,45,0,45,0,1,,,,,,,,,,,,,,,,,,,,,,,,,,,,,,,,,,
,,,,,,,,,,,,,,,,,,,,1,5,2021-01-11_13h58.32.437,CL_C2S3,2020.1.3,Win32,60,,,,,u,1,0.73394,2,media/dknb.png,2,"[-1,1,-1]",5,0,Symb,u,RT,0,0,46,1,1,99,99,u,0.73394,1,5,46,0,46,0,1,,,,,,,,,,,,,,,,,,,,,,,,,,,,,,,,,,
,,,,,,,,,,,,,,,,,,,,1,5,2021-01-11_13h58.32.437,CL_C2S3,2020.1.3,Win32,60,,,,,i,1,0.476585,2,media/dknb.png,1,"[1,-1,-1]",2,0,Symb,i,RT,0,0,47,1,1,99,99,i,0.476585,1,5,47,0,47,0,1,,,,,,,,,,,,,,,,,,,,,,,,,,,,,,,,,,
,,,,,,,,,,,,,,,,,,,,1,5,2021-01-11_13h58.32.437,CL_C2S3,2020.1.3,Win32,60,,,,,h,0,0.771595,0,media/dcnb.png,1,"[1,-1,-1]",0,0,Symb,u,RT,0,0,48,1,1,99,99,h,0.771595,0,5,48,0,48,0,1,,,,,,,,,,,,,,,,,,,,,,,,,,,,,,,,,,
,,,,,,,,,,,,,,,,,,,,1,5,2021-01-11_13h58.32.437,CL_C2S3,2020.1.3,Win32,60,,,,,u,1,0.53925,2,media/dknb.png,2,"[-1,1,-1]",5,0,Symb,u,RT,0,0,49,1,1,99,99,u,0.53925,1,5,49,0,49,0,1,,,,,,,,,,,,,,,,,,,,,,,,,,,,,,,,,,
,,,,,,,,,,,,,,,,,,,,1,5,2021-01-11_13h58.32.437,CL_C2S3,2020.1.3,Win32,60,,,,,i,1,0.684265,1,media/dfnb.png,2,"[-1,1,-1]",4,1,Symb,i,RT,0,0,50,1,1,99,99,i,0.684265,1,5,50,0,50,0,1,,,,,,,,,,,,,,,,,,,,,,,,,,,,,,,,,,
,,,,,,,,,,,,,,,,,,,,1,5,2021-01-11_13h58.32.437,CL_C2S3,2020.1.3,Win32,60,,,,,u,0,0.506015,2,media/dknb.png,1,"[1,-1,-1]",2,0,Symb,i,RT,0,0,51,1,1,99,99,u,0.506015,0,5,51,0,51,0,1,,,,,,,,,,,,,,,,,,,,,,,,,,,,,,,,,,
,,,,,,,,,,,,,,,,,,,,1,5,2021-01-11_13h58.32.437,CL_C2S3,2020.1.3,Win32,60,,,,,h,1,0.554505,1,media/dfnb.png,1,"[1,-1,-1]",1,1,Symb,h,RT,0,0,52,1,1,99,99,h,0.554505,1,5,52,0,52,0,1,,,,,,,,,,,,,,,,,,,,,,,,,,,,,,,,,,
,,,,,,,,,,,,,,,,,,,,1,5,2021-01-11_13h58.32.437,CL_C2S3,2020.1.3,Win32,60,,,,,h,1,0.623095,0,media/dcnb.png,2,"[-1,1,-1]",3,0,Symb,h,RT,0,0,53,1,1,99,99,h,0.623095,1,5,53,0,53,0,1,,,,,,,,,,,,,,,,,,,,,,,,,,,,,,,,,,
,,,,,,,,,,,,,,,,,,,,1,5,2021-01-11_13h58.32.437,CL_C2S3,2020.1.3,Win32,60,,,,,i,1,0.56693,2,media/dknb.png,1,"[1,-1,-1]",2,0,Symb,i,RT,0,0,54,1,1,99,99,i,0.56693,1,5,54,0,54,0,1,,,,,,,,,,,,,,,,,,,,,,,,,,,,,,,,,,
,,,,,,,,,,,,,,,,,,,,1,5,2021-01-11_13h58.32.437,CL_C2S3,2020.1.3,Win32,60,,,,,u,1,0.49399,2,media/dknb.png,2,"[-1,1,-1]",5,0,Symb,u,RT,0,0,55,1,1,99,99,u,0.49399,1,5,55,0,55,0,1,,,,,,,,,,,,,,,,,,,,,,,,,,,,,,,,,,
,,,,,,,,,,,,,,,,,,,,1,5,2021-01-11_13h58.32.437,CL_C2S3,2020.1.3,Win32,60,,,,,h,0,0.538735,0,media/dcnb.png,1,"[1,-1,-1]",0,0,Symb,u,RT,0,0,56,1,1,99,99,h,0.538735,0,5,56,0,56,0,1,,,,,,,,,,,,,,,,,,,,,,,,,,,,,,,,,,
,,,,,,,,,,,,,,,,,,,,1,5,2021-01-11_13h58.32.437,CL_C2S3,2020.1.3,Win32,60,,,,,i,1,0.56688,1,media/dfnb.png,2,"[-1,1,-1]",4,1,Symb,i,RT,0,0,57,1,1,99,99,i,0.56688,1,5,57,0,57,0,1,,,,,,,,,,,,,,,,,,,,,,,,,,,,,,,,,,
,,,,,,,,,,,,,,,,,,,,1,5,2021-01-11_13h58.32.437,CL_C2S3,2020.1.3,Win32,60,,,,,h,1,0.810865,1,media/dfnb.png,1,"[1,-1,-1]",1,1,Symb,h,RT,0,0,58,1,1,99,99,h,0.810865,1,5,58,0,58,0,1,,,,,,,,,,,,,,,,,,,,,,,,,,,,,,,,,,
,,,,,,,,,,,,,,,,,,,,1,5,2021-01-11_13h58.32.437,CL_C2S3,2020.1.3,Win32,60,,,,,h,1,0.55579,0,media/dcnb.png,2,"[-1,1,-1]",3,0,Symb,h,RT,0,0,59,1,1,99,99,h,0.55579,1,5,59,0,59,0,1,,,,,,,,,,,,,,,,,,,,,,,,,,,,,,,,,,
,,,,,,,,,,,,,,,,,,,,1,5,2021-01-11_13h58.32.437,CL_C2S3,2020.1.3,Win32,60,,,,,i,1,0.588525,2,media/dknb.png,1,"[1,-1,-1]",2,0,Symb,i,RT,0,0,60,1,1,99,99,i,0.588525,1,5,60,0,60,0,1,,,,,,,,,,,,,,,,,,,,,,,,,,,,,,,,,,
,,,,,,,,,,,,,,,,,,,,1,5,2021-01-11_13h58.32.437,CL_C2S3,2020.1.3,Win32,60,,,,,u,1,0.52444,2,media/dknb.png,2,"[-1,1,-1]",5,0,Symb,u,RT,0,0,61,1,1,99,99,u,0.52444,1,5,61,0,61,0,1,,,,,,,,,,,,,,,,,,,,,,,,,,,,,,,,,,
,,,,,,,,,,,,,,,,,,,,1,5,2021-01-11_13h58.32.437,CL_C2S3,2020.1.3,Win32,60,,,,,u,1,0.78784,0,media/dcnb.png,1,"[1,-1,-1]",0,0,Symb,u,RT,0,0,62,1,1,99,99,u,0.78784,1,5,62,0,62,0,1,,,,,,,,,,,,,,,,,,,,,,,,,,,,,,,,,,
,,,,,,,,,,,,,,,,,,,,1,5,2021-01-11_13h58.32.437,CL_C2S3,2020.1.3,Win32,60,,,,,u,1,0.7073,2,media/dknb.png,2,"[-1,1,-1]",5,0,Symb,u,RT,0,0,63,1,1,99,99,u,0.7073,1,5,63,0,63,0,1,,,,,,,,,,,,,,,,,,,,,,,,,,,,,,,,,,
,,,,,,,,,,,,,,,,,,,,1,5,2021-01-11_13h58.32.437,CL_C2S3,2020.1.3,Win32,60,,,,,i,1,0.525995,2,media/dknb.png,1,"[1,-1,-1]",2,0,Symb,i,RT,0,0,64,1,1,99,99,i,0.525995,1,5,64,0,64,0,1,,,,,,,,,,,,,,,,,,,,,,,,,,,,,,,,,,
,,,,,,,,,,,,,,,,,,,,1,5,2021-01-11_13h58.32.437,CL_C2S3,2020.1.3,Win32,60,,,,,i,1,0.758585,1,media/dfnb.png,2,"[-1,1,-1]",4,1,Symb,i,RT,0,0,65,1,1,99,99,i,0.758585,1,5,65,0,65,0,1,,,,,,,,,,,,,,,,,,,,,,,,,,,,,,,,,,
,,,,,,,,,,,,,,,,,,,,1,5,2021-01-11_13h58.32.437,CL_C2S3,2020.1.3,Win32,60,,,,,h,1,0.71068,0,media/dcnb.png,2,"[-1,1,-1]",3,0,Symb,h,RT,0,0,66,1,1,99,99,h,0.71068,1,5,66,0,66,0,1,,,,,,,,,,,,,,,,,,,,,,,,,,,,,,,,,,
,,,,,,,,,,,,,,,,,,,,1,5,2021-01-11_13h58.32.437,CL_C2S3,2020.1.3,Win32,60,,,,,i,1,0.790125,1,media/dfnb.png,2,"[-1,1,-1]",4,1,Symb,i,RT,0,0,67,1,1,99,99,i,0.790125,1,5,67,0,67,0,1,,,,,,,,,,,,,,,,,,,,,,,,,,,,,,,,,,
,,,,,,,,,,,,,,,,,,,,1,5,2021-01-11_13h58.32.437,CL_C2S3,2020.1.3,Win32,60,,,,,h,1,0.55838,1,media/dfnb.png,1,"[1,-1,-1]",1,1,Symb,h,RT,0,0,68,1,1,99,99,h,0.55838,1,5,68,0,68,0,1,,,,,,,,,,,,,,,,,,,,,,,,,,,,,,,,,,
,,,,,,,,,,,,,,,,,,,,1,5,2021-01-11_13h58.32.437,CL_C2S3,2020.1.3,Win32,60,,,,,h,1,0.972535,0,media/dcnb.png,2,"[-1,1,-1]",3,0,Symb,h,RT,0,0,69,1,1,99,99,h,0.972535,1,5,69,0,69,0,1,,,,,,,,,,,,,,,,,,,,,,,,,,,,,,,,,,
,,,,,,,,,,,,,,,,,,,,1,5,2021-01-11_13h58.32.437,CL_C2S3,2020.1.3,Win32,60,,,,,h,1,0.58387,1,media/dfnb.png,1,"[1,-1,-1]",1,1,Symb,h,RT,0,0,70,1,1,99,99,h,0.58387,1,5,70,0,70,0,1,,,,,,,,,,,,,,,,,,,,,,,,,,,,,,,,,,
,,,,,,,,,,,,,,,,,,,,1,5,2021-01-11_13h58.32.437,CL_C2S3,2020.1.3,Win32,60,,,,,u,1,0.577775,0,media/dcnb.png,1,"[1,-1,-1]",0,0,Symb,u,RT,0,0,71,1,1,99,99,u,0.577775,1,5,71,0,71,0,1,,,,,,,,,,,,,,,,,,,,,,,,,,,,,,,,,,
,,,,,,,,,,,,,,,,,,,,1,5,2021-01-11_13h58.32.437,CL_C2S3,2020.1.3,Win32,60,,,,,u,1,0.493,2,media/dknb.png,2,"[-1,1,-1]",5,0,Symb,u,RT,0,0,72,1,1,99,99,u,0.493,1,5,72,0,72,0,1,,,,,,,,,,,,,,,,,,,,,,,,,,,,,,,,,,
,,,,,,,,,,,,,,,,,,,,1,5,2021-01-11_13h58.32.437,CL_C2S3,2020.1.3,Win32,60,,,,,h,0,0.56811,1,media/dfnb.png,2,"[-1,1,-1]",4,1,Symb,i,RT,0,0,73,1,1,99,99,h,0.56811,0,5,73,0,73,0,1,,,,,,,,,,,,,,,,,,,,,,,,,,,,,,,,,,
,,,,,,,,,,,,,,,,,,,,1,5,2021-01-11_13h58.32.437,CL_C2S3,2020.1.3,Win32,60,,,,,i,1,0.608705,2,media/dknb.png,1,"[1,-1,-1]",2,0,Symb,i,RT,0,0,74,1,1,99,99,i,0.608705,1,5,74,0,74,0,1,,,,,,,,,,,,,,,,,,,,,,,,,,,,,,,,,,
,,,,,,,,,,,,,,,,,,,,1,5,2021-01-11_13h58.32.437,CL_C2S3,2020.1.3,Win32,60,,,,,i,1,0.366935,2,media/dknb.png,1,"[1,-1,-1]",2,0,Symb,i,RT,0,0,75,1,1,99,99,i,0.366935,1,5,75,0,75,0,1,,,,,,,,,,,,,,,,,,,,,,,,,,,,,,,,,,
,,,,,,,,,,,,,,,,,,,,1,5,2021-01-11_13h58.32.437,CL_C2S3,2020.1.3,Win32,60,,,,,h,1,0.720075,1,media/dfnb.png,1,"[1,-1,-1]",1,1,Symb,h,RT,0,0,76,1,1,99,99,h,0.720075,1,5,76,0,76,0,1,,,,,,,,,,,,,,,,,,,,,,,,,,,,,,,,,,
,,,,,,,,,,,,,,,,,,,,1,5,2021-01-11_13h58.32.437,CL_C2S3,2020.1.3,Win32,60,,,,,h,1,1.50295,0,media/dcnb.png,2,"[-1,1,-1]",3,0,Symb,h,RT,0,0,77,1,1,99,99,h,1.50295,1,5,77,0,77,0,1,,,,,,,,,,,,,,,,,,,,,,,,,,,,,,,,,,
,,,,,,,,,,,,,,,,,,,,1,5,2021-01-11_13h58.32.437,CL_C2S3,2020.1.3,Win32,60,,,,,h,1,0.40651,0,media/dcnb.png,2,"[-1,1,-1]",3,0,Symb,h,RT,0,0,78,1,1,99,99,h,0.40651,1,5,78,0,78,0,1,,,,,,,,,,,,,,,,,,,,,,,,,,,,,,,,,,
,,,,,,,,,,,,,,,,,,,,1,5,2021-01-11_13h58.32.437,CL_C2S3,2020.1.3,Win32,60,,,,,u,1,0.60165,0,media/dcnb.png,1,"[1,-1,-1]",0,0,Symb,u,RT,0,0,79,1,1,99,99,u,0.60165,1,5,79,0,79,0,1,,,,,,,,,,,,,,,,,,,,,,,,,,,,,,,,,,
,,,,,,,,,,,,,,,,,,,,1,5,2021-01-11_13h58.32.437,CL_C2S3,2020.1.3,Win32,60,,,,,u,1,0.585025,2,media/dknb.png,2,"[-1,1,-1]",5,0,Symb,u,RT,0,0,80,1,1,99,99,u,0.585025,1,5,80,0,80,0,1,,,,,,,,,,,,,,,,,,,,,,,,,,,,,,,,,,
,,,,,,,,,,,,,,,,,,,,1,5,2021-01-11_13h58.32.437,CL_C2S3,2020.1.3,Win32,60,,,,,u,1,1.077925,0,media/dcnb.png,1,"[1,-1,-1]",0,0,Symb,u,RT,0,0,81,1,1,99,99,u,1.077925,1,5,81,0,81,0,1,,,,,,,,,,,,,,,,,,,,,,,,,,,,,,,,,,
,,,,,,,,,,,,,,,,,,,,1,5,2021-01-11_13h58.32.437,CL_C2S3,2020.1.3,Win32,60,,,,,i,1,0.66704,1,media/dfnb.png,2,"[-1,1,-1]",4,1,Symb,i,RT,0,0,82,1,1,99,99,i,0.66704,1,5,82,0,82,0,1,,,,,,,,,,,,,,,,,,,,,,,,,,,,,,,,,,
,,,,,,,,,,,,,,,,,,,,1,5,2021-01-11_13h58.32.437,CL_C2S3,2020.1.3,Win32,60,,,,,h,1,1.790715,1,media/dfnb.png,1,"[1,-1,-1]",1,1,Symb,h,RT,0,0,83,1,1,99,99,h,1.790715,1,5,83,0,83,0,1,,,,,,,,,,,,,,,,,,,,,,,,,,,,,,,,,,
,,,,,,,,,,,,,,,,,,,,1,5,2021-01-11_13h58.32.437,CL_C2S3,2020.1.3,Win32,60,,,,,u,1,1.001155,0,media/dcnb.png,1,"[1,-1,-1]",0,0,Symb,u,RT,0,0,84,1,1,99,99,u,1.001155,1,5,84,0,84,0,1,,,,,,,,,,,,,,,,,,,,,,,,,,,,,,,,,,
,,,,,,,,,,,,,,,,,,,,1,5,2021-01-11_13h58.32.437,CL_C2S3,2020.1.3,Win32,60,,,,,i,1,0.601375,2,media/dknb.png,1,"[1,-1,-1]",2,0,Symb,i,RT,0,0,85,1,1,99,99,i,0.601375,1,5,85,0,85,0,1,,,,,,,,,,,,,,,,,,,,,,,,,,,,,,,,,,
,,,,,,,,,,,,,,,,,,,,1,5,2021-01-11_13h58.32.437,CL_C2S3,2020.1.3,Win32,60,,,,,u,1,0.624985,2,media/dknb.png,2,"[-1,1,-1]",5,0,Symb,u,RT,0,0,86,1,1,99,99,u,0.624985,1,5,86,0,86,0,1,,,,,,,,,,,,,,,,,,,,,,,,,,,,,,,,,,
,,,,,,,,,,,,,,,,,,,,1,5,2021-01-11_13h58.32.437,CL_C2S3,2020.1.3,Win32,60,,,,,i,1,0.74131,1,media/dfnb.png,2,"[-1,1,-1]",4,1,Symb,i,RT,0,0,87,1,1,99,99,i,0.74131,1,5,87,0,87,0,1,,,,,,,,,,,,,,,,,,,,,,,,,,,,,,,,,,
,,,,,,,,,,,,,,,,,,,,1,5,2021-01-11_13h58.32.437,CL_C2S3,2020.1.3,Win32,60,,,,,h,1,0.866895,1,media/dfnb.png,1,"[1,-1,-1]",1,1,Symb,h,RT,0,0,88,1,1,99,99,h,0.866895,1,5,88,0,88,0,1,,,,,,,,,,,,,,,,,,,,,,,,,,,,,,,,,,
,,,,,,,,,,,,,,,,,,,,1,5,2021-01-11_13h58.32.437,CL_C2S3,2020.1.3,Win32,60,,,,,h,1,0.9016,0,media/dcnb.png,2,"[-1,1,-1]",3,0,Symb,h,RT,0,0,89,1,1,99,99,h,0.9016,1,5,89,0,89,0,1,,,,,,,,,,,,,,,,,,,,,,,,,,,,,,,,,,
,,,,,,,,,,,,,,,,,,,,1,5,2021-01-11_13h58.32.437,CL_C2S3,2020.1.3,Win32,60,,,,,i,1,0.57347,2,media/dknb.png,1,"[1,-1,-1]",2,0,Symb,i,RT,0,0,90,1,1,99,99,i,0.57347,1,5,90,0,90,0,1,,,,,,,,,,,,,,,,,,,,,,,,,,,,,,,,,,
,,,,,,,,,,,,,,,,,,,,1,5,2021-01-11_13h58.32.437,CL_C2S3,2020.1.3,Win32,60,,,,,u,1,0.59273,2,media/dknb.png,2,"[-1,1,-1]",5,0,Symb,u,RT,0,0,91,1,1,99,99,u,0.59273,1,5,91,0,91,0,1,,,,,,,,,,,,,,,,,,,,,,,,,,,,,,,,,,
,,,,,,,,,,,,,,,,,,,,1,5,2021-01-11_13h58.32.437,CL_C2S3,2020.1.3,Win32,60,,,,,i,1,0.657835,1,media/dfnb.png,2,"[-1,1,-1]",4,1,Symb,i,RT,0,0,92,1,1,99,99,i,0.657835,1,5,92,0,92,0,1,,,,,,,,,,,,,,,,,,,,,,,,,,,,,,,,,,
,,,,,,,,,,,,,,,,,,,,1,5,2021-01-11_13h58.32.437,CL_C2S3,2020.1.3,Win32,60,,,,,u,1,0.611235,0,media/dcnb.png,1,"[1,-1,-1]",0,0,Symb,u,RT,0,0,93,1,1,99,99,u,0.611235,1,5,93,0,93,0,1,,,,,,,,,,,,,,,,,,,,,,,,,,,,,,,,,,
,,,,,,,,,,,,,,,,,,,,1,5,2021-01-11_13h58.32.437,CL_C2S3,2020.1.3,Win32,60,,,,,h,1,0.553965,0,media/dcnb.png,2,"[-1,1,-1]",3,0,Symb,h,RT,0,0,94,1,1,99,99,h,0.553965,1,5,94,0,94,0,1,,,,,,,,,,,,,,,,,,,,,,,,,,,,,,,,,,
,,,,,,,,,,,,,,,,,,,,1,5,2021-01-11_13h58.32.437,CL_C2S3,2020.1.3,Win32,60,,,,,h,1,0.4015,0,media/dcnb.png,2,"[-1,1,-1]",3,0,Symb,h,RT,0,0,95,1,1,99,99,h,0.4015,1,5,95,0,95,0,1,,,,,,,,,,,,,,,,,,,,,,,,,,,,,,,,,,
,,,,,,,,,,,,,,,,,,,,1,5,2021-01-11_13h58.32.437,CL_C2S3,2020.1.3,Win32,60,,,,,u,1,0.63398,2,media/dknb.png,2,"[-1,1,-1]",5,0,Symb,u,RT,0,0,96,1,1,99,99,u,0.63398,1,5,96,0,96,0,1,,,,,,,,,,,,,,,,,,,,,,,,,,,,,,,,,,
,,,,,,,,,,,,,,,,,,,,1,5,2021-01-11_13h58.32.437,CL_C2S3,2020.1.3,Win32,60,,,,,i,1,0.690305,1,media/dfnb.png,2,"[-1,1,-1]",4,1,Symb,i,RT,0,0,97,1,1,99,99,i,0.690305,1,5,97,0,97,0,1,,,,,,,,,,,,,,,,,,,,,,,,,,,,,,,,,,
,,,,,,,,,,,,,,,,,,,,1,5,2021-01-11_13h58.32.437,CL_C2S3,2020.1.3,Win32,60,,,,,h,1,0.53366,1,media/dfnb.png,1,"[1,-1,-1]",1,1,Symb,h,RT,0,0,98,1,1,99,99,h,0.53366,1,5,98,0,98,0,1,,,,,,,,,,,,,,,,,,,,,,,,,,,,,,,,,,
,,,,,,,,,,,,,,,,,,,,1,5,2021-01-11_13h58.32.437,CL_C2S3,2020.1.3,Win32,60,,,,,i,1,0.478575,2,media/dknb.png,1,"[1,-1,-1]",2,0,Symb,i,RT,0,0,99,1,1,99,99,i,0.478575,1,5,99,0,99,0,1,,,,,,,,,,,,,,,,,,,,,,,,,,,,,,,,,,
,,,,,,,,,,,,,,,,,,,,1,5,2021-01-11_13h58.32.437,CL_C2S3,2020.1.3,Win32,60,,,,,h,1,0.576975,1,media/dfnb.png,1,"[1,-1,-1]",1,1,Symb,h,RT,0,0,100,1,1,99,99,h,0.576975,1,5,100,0,100,0,1,,,,,,,,,,,,,,,,,,,,,,,,,,,,,,,,,,
,,,,,,,,,,,,,,,,,,,,1,5,2021-01-11_13h58.32.437,CL_C2S3,2020.1.3,Win32,60,,,,,u,1,0.70171,0,media/dcnb.png,1,"[1,-1,-1]",0,0,Symb,u,RT,0,0,101,1,1,99,99,u,0.70171,1,5,101,0,101,0,1,,,,,,,,,,,,,,,,,,,,,,,,,,,,,,,,,,
,,,,,,,,,,,,,,,,,,,,1,5,2021-01-11_13h58.32.437,CL_C2S3,2020.1.3,Win32,60,,,,,u,1,0.54523,0,media/dcnb.png,1,"[1,-1,-1]",0,0,Symb,u,RT,0,0,102,1,1,99,99,u,0.54523,1,5,102,0,102,0,1,,,,,,,,,,,,,,,,,,,,,,,,,,,,,,,,,,
,,,,,,,,,,,,,,,,,,,,1,5,2021-01-11_13h58.32.437,CL_C2S3,2020.1.3,Win32,60,,,,,i,1,0.57027,2,media/dknb.png,1,"[1,-1,-1]",2,0,Symb,i,RT,0,0,103,1,1,99,99,i,0.57027,1,5,103,0,103,0,1,,,,,,,,,,,,,,,,,,,,,,,,,,,,,,,,,,
,,,,,,,,,,,,,,,,,,,,1,5,2021-01-11_13h58.32.437,CL_C2S3,2020.1.3,Win32,60,,,,,h,1,0.556905,1,media/dfnb.png,1,"[1,-1,-1]",1,1,Symb,h,RT,0,0,104,1,1,99,99,h,0.556905,1,5,104,0,104,0,1,,,,,,,,,,,,,,,,,,,,,,,,,,,,,,,,,,
,,,,,,,,,,,,,,,,,,,,1,5,2021-01-11_13h58.32.437,CL_C2S3,2020.1.3,Win32,60,,,,,h,1,0.51767,1,media/dfnb.png,1,"[1,-1,-1]",1,1,Symb,h,RT,0,0,105,1,1,99,99,h,0.51767,1,5,105,0,105,0,1,,,,,,,,,,,,,,,,,,,,,,,,,,,,,,,,,,
,,,,,,,,,,,,,,,,,,,,1,5,2021-01-11_13h58.32.437,CL_C2S3,2020.1.3,Win32,60,,,,,h,1,0.59558,0,media/dcnb.png,2,"[-1,1,-1]",3,0,Symb,h,RT,0,0,106,1,1,99,99,h,0.59558,1,5,106,0,106,0,1,,,,,,,,,,,,,,,,,,,,,,,,,,,,,,,,,,
,,,,,,,,,,,,,,,,,,,,1,5,2021-01-11_13h58.32.437,CL_C2S3,2020.1.3,Win32,60,,,,,i,1,0.50002,1,media/dfnb.png,2,"[-1,1,-1]",4,1,Symb,i,RT,0,0,107,1,1,99,99,i,0.50002,1,5,107,0,107,0,1,,,,,,,,,,,,,,,,,,,,,,,,,,,,,,,,,,
,,,,,,,,,,,,,,,,,,,,1,5,2021-01-11_13h58.32.437,CL_C2S3,2020.1.3,Win32,60,,,,,i,1,0.60141,2,media/dknb.png,1,"[1,-1,-1]",2,0,Symb,i,RT,0,0,108,1,1,99,99,i,0.60141,1,5,108,0,108,0,1,,,,,,,,,,,,,,,,,,,,,,,,,,,,,,,,,,
,,,,,,,,,,,,,,,,,,,,1,5,2021-01-11_13h58.32.437,CL_C2S3,2020.1.3,Win32,60,,,,,i,0,0.46088,2,media/dknb.png,2,"[-1,1,-1]",5,0,Symb,u,RT,0,0,109,1,1,99,99,i,0.46088,0,5,109,0,109,0,1,,,,,,,,,,,,,,,,,,,,,,,,,,,,,,,,,,
,,,,,,,,,,,,,,,,,,,,1,5,2021-01-11_13h58.32.437,CL_C2S3,2020.1.3,Win32,60,,,,,u,1,0.467265,2,media/dknb.png,2,"[-1,1,-1]",5,0,Symb,u,RT,0,0,110,1,1,99,99,u,0.467265,1,5,110,0,110,0,1,,,,,,,,,,,,,,,,,,,,,,,,,,,,,,,,,,
,,,,,,,,,,,,,,,,,,,,1,5,2021-01-11_13h58.32.437,CL_C2S3,2020.1.3,Win32,60,,,,,h,1,0.77065,0,media/dcnb.png,2,"[-1,1,-1]",3,0,Symb,h,RT,0,0,111,1,1,99,99,h,0.77065,1,5,111,0,111,0,1,,,,,,,,,,,,,,,,,,,,,,,,,,,,,,,,,,
,,,,,,,,,,,,,,,,,,,,1,5,2021-01-11_13h58.32.437,CL_C2S3,2020.1.3,Win32,60,,,,,u,1,0.58844,0,media/dcnb.png,1,"[1,-1,-1]",0,0,Symb,u,RT,0,0,112,1,1,99,99,u,0.58844,1,5,112,0,112,0,1,,,,,,,,,,,,,,,,,,,,,,,,,,,,,,,,,,
,,,,,,,,,,,,,,,,,,,,1,5,2021-01-11_13h58.32.437,CL_C2S3,2020.1.3,Win32,60,,,,,i,1,0.55916,1,media/dfnb.png,2,"[-1,1,-1]",4,1,Symb,i,RT,0,0,113,1,1,99,99,i,0.55916,1,5,113,0,113,0,1,,,,,,,,,,,,,,,,,,,,,,,,,,,,,,,,,,
,,,,,,,,,,,,,,,,,,,,1,5,2021-01-11_13h58.32.437,CL_C2S3,2020.1.3,Win32,60,,,,,u,0,0.67794,0,media/dcnb.png,2,"[-1,1,-1]",3,0,Symb,h,RT,0,0,114,1,1,99,99,u,0.67794,0,5,114,0,114,0,1,,,,,,,,,,,,,,,,,,,,,,,,,,,,,,,,,,
,,,,,,,,,,,,,,,,,,,,1,5,2021-01-11_13h58.32.437,CL_C2S3,2020.1.3,Win32,60,,,,,i,1,0.78067,1,media/dfnb.png,2,"[-1,1,-1]",4,1,Symb,i,RT,0,0,115,1,1,99,99,i,0.78067,1,5,115,0,115,0,1,,,,,,,,,,,,,,,,,,,,,,,,,,,,,,,,,,
,,,,,,,,,,,,,,,,,,,,1,5,2021-01-11_13h58.32.437,CL_C2S3,2020.1.3,Win32,60,,,,,u,0,1.155615,2,media/dknb.png,1,"[1,-1,-1]",2,0,Symb,i,RT,0,0,116,1,1,99,99,u,1.155615,0,5,116,0,116,0,1,,,,,,,,,,,,,,,,,,,,,,,,,,,,,,,,,,
,,,,,,,,,,,,,,,,,,,,1,5,2021-01-11_13h58.32.437,CL_C2S3,2020.1.3,Win32,60,,,,,h,1,0.766145,1,media/dfnb.png,1,"[1,-1,-1]",1,1,Symb,h,RT,0,0,117,1,1,99,99,h,0.766145,1,5,117,0,117,0,1,,,,,,,,,,,,,,,,,,,,,,,,,,,,,,,,,,
,,,,,,,,,,,,,,,,,,,,1,5,2021-01-11_13h58.32.437,CL_C2S3,2020.1.3,Win32,60,,,,,u,1,0.76969,2,media/dknb.png,2,"[-1,1,-1]",5,0,Symb,u,RT,0,0,118,1,1,99,99,u,0.76969,1,5,118,0,118,0,1,,,,,,,,,,,,,,,,,,,,,,,,,,,,,,,,,,
,,,,,,,,,,,,,,,,,,,,1,5,2021-01-11_13h58.32.437,CL_C2S3,2020.1.3,Win32,60,,,,,u,1,0.65156,0,media/dcnb.png,1,"[1,-1,-1]",0,0,Symb,u,RT,0,0,119,1,1,99,99,u,0.65156,1,5,119,0,119,0,1,,,,,,,,,,,,,,,,,,,,,,,,,,,,,,,,,,
,,,,,,,,,,,,,,,,,,,,1,5,2021-01-11_13h58.32.437,CL_C2S3,2020.1.3,Win32,60,,,,,,,,,,,,,,,,,,,,,,,,,,,,,,,,,0,0,0,0,1,,,,,,,,,,,,,,,,,,,,,,,,,,,,,
,,,,,,,,,,,,,,,,,,,,1,5,2021-01-11_13h58.32.437,CL_C2S3,2020.1.3,Win32,60,,,h,461.643105,i,1,0.926375,1,media/dfnb.png,2,"[-1,1,-1]",4,1,Symb,i,RT,0,0,0,1,2,99,99,i,0.926375,1,5,0,0,0,0,1,,,,,,,,,,,,,,,,,,,,,,,,,,,,,,,,,,
,,,,,,,,,,,,,,,,,,,,1,5,2021-01-11_13h58.32.437,CL_C2S3,2020.1.3,Win32,60,,,,,h,1,0.53047,1,media/dfnb.png,1,"[1,-1,-1]",1,1,Symb,h,RT,0,0,1,1,2,99,99,h,0.53047,1,5,1,0,1,0,1,,,,,,,,,,,,,,,,,,,,,,,,,,,,,,,,,,
,,,,,,,,,,,,,,,,,,,,1,5,2021-01-11_13h58.32.437,CL_C2S3,2020.1.3,Win32,60,,,,,u,0,0.95794,0,media/dcnb.png,2,"[-1,1,-1]",3,0,Symb,h,RT,0,0,2,1,2,99,99,u,0.95794,0,5,2,0,2,0,1,,,,,,,,,,,,,,,,,,,,,,,,,,,,,,,,,,
,,,,,,,,,,,,,,,,,,,,1,5,2021-01-11_13h58.32.437,CL_C2S3,2020.1.3,Win32,60,,,,,h,1,0.690235,1,media/dfnb.png,1,"[1,-1,-1]",1,1,Symb,h,RT,0,0,3,1,2,99,99,h,0.690235,1,5,3,0,3,0,1,,,,,,,,,,,,,,,,,,,,,,,,,,,,,,,,,,
,,,,,,,,,,,,,,,,,,,,1,5,2021-01-11_13h58.32.437,CL_C2S3,2020.1.3,Win32,60,,,,,i,1,0.72091,2,media/dknb.png,1,"[1,-1,-1]",2,0,Symb,i,RT,0,0,4,1,2,99,99,i,0.72091,1,5,4,0,4,0,1,,,,,,,,,,,,,,,,,,,,,,,,,,,,,,,,,,
,,,,,,,,,,,,,,,,,,,,1,5,2021-01-11_13h58.32.437,CL_C2S3,2020.1.3,Win32,60,,,,,u,1,0.69403,0,media/dcnb.png,1,"[1,-1,-1]",0,0,Symb,u,RT,0,0,5,1,2,99,99,u,0.69403,1,5,5,0,5,0,1,,,,,,,,,,,,,,,,,,,,,,,,,,,,,,,,,,
,,,,,,,,,,,,,,,,,,,,1,5,2021-01-11_13h58.32.437,CL_C2S3,2020.1.3,Win32,60,,,,,i,1,0.74418,2,media/dknb.png,1,"[1,-1,-1]",2,0,Symb,i,RT,0,0,6,1,2,99,99,i,0.74418,1,5,6,0,6,0,1,,,,,,,,,,,,,,,,,,,,,,,,,,,,,,,,,,
,,,,,,,,,,,,,,,,,,,,1,5,2021-01-11_13h58.32.437,CL_C2S3,2020.1.3,Win32,60,,,,,u,1,0.600095,2,media/dknb.png,2,"[-1,1,-1]",5,0,Symb,u,RT,0,0,7,1,2,99,99,u,0.600095,1,5,7,0,7,0,1,,,,,,,,,,,,,,,,,,,,,,,,,,,,,,,,,,
,,,,,,,,,,,,,,,,,,,,1,5,2021-01-11_13h58.32.437,CL_C2S3,2020.1.3,Win32,60,,,,,u,1,0.649845,0,media/dcnb.png,1,"[1,-1,-1]",0,0,Symb,u,RT,0,0,8,1,2,99,99,u,0.649845,1,5,8,0,8,0,1,,,,,,,,,,,,,,,,,,,,,,,,,,,,,,,,,,
,,,,,,,,,,,,,,,,,,,,1,5,2021-01-11_13h58.32.437,CL_C2S3,2020.1.3,Win32,60,,,,,i,1,0.811455,1,media/dfnb.png,2,"[-1,1,-1]",4,1,Symb,i,RT,0,0,9,1,2,99,99,i,0.811455,1,5,9,0,9,0,1,,,,,,,,,,,,,,,,,,,,,,,,,,,,,,,,,,
,,,,,,,,,,,,,,,,,,,,1,5,2021-01-11_13h58.32.437,CL_C2S3,2020.1.3,Win32,60,,,,,h,1,0.933775,0,media/dcnb.png,2,"[-1,1,-1]",3,0,Symb,h,RT,0,0,10,1,2,99,99,h,0.933775,1,5,10,0,10,0,1,,,,,,,,,,,,,,,,,,,,,,,,,,,,,,,,,,
,,,,,,,,,,,,,,,,,,,,1,5,2021-01-11_13h58.32.437,CL_C2S3,2020.1.3,Win32,60,,,,,u,1,0.728845,2,media/dknb.png,2,"[-1,1,-1]",5,0,Symb,u,RT,0,0,11,1,2,99,99,u,0.728845,1,5,11,0,11,0,1,,,,,,,,,,,,,,,,,,,,,,,,,,,,,,,,,,
,,,,,,,,,,,,,,,,,,,,1,5,2021-01-11_13h58.32.437,CL_C2S3,2020.1.3,Win32,60,,,,,i,1,0.48348,2,media/dknb.png,1,"[1,-1,-1]",2,0,Symb,i,RT,0,0,12,1,2,99,99,i,0.48348,1,5,12,0,12,0,1,,,,,,,,,,,,,,,,,,,,,,,,,,,,,,,,,,
,,,,,,,,,,,,,,,,,,,,1,5,2021-01-11_13h58.32.437,CL_C2S3,2020.1.3,Win32,60,,,,,u,1,0.727415,0,media/dcnb.png,1,"[1,-1,-1]",0,0,Symb,u,RT,0,0,13,1,2,99,99,u,0.727415,1,5,13,0,13,0,1,,,,,,,,,,,,,,,,,,,,,,,,,,,,,,,,,,
,,,,,,,,,,,,,,,,,,,,1,5,2021-01-11_13h58.32.437,CL_C2S3,2020.1.3,Win32,60,,,,,u,1,0.7975,2,media/dknb.png,2,"[-1,1,-1]",5,0,Symb,u,RT,0,0,14,1,2,99,99,u,0.7975,1,5,14,0,14,0,1,,,,,,,,,,,,,,,,,,,,,,,,,,,,,,,,,,
,,,,,,,,,,,,,,,,,,,,1,5,2021-01-11_13h58.32.437,CL_C2S3,2020.1.3,Win32,60,,,,,i,1,0.767325,2,media/dknb.png,1,"[1,-1,-1]",2,0,Symb,i,RT,0,0,15,1,2,99,99,i,0.767325,1,5,15,0,15,0,1,,,,,,,,,,,,,,,,,,,,,,,,,,,,,,,,,,
,,,,,,,,,,,,,,,,,,,,1,5,2021-01-11_13h58.32.437,CL_C2S3,2020.1.3,Win32,60,,,,,i,1,2.09055,1,media/dfnb.png,2,"[-1,1,-1]",4,1,Symb,i,RT,0,0,16,1,2,99,99,i,2.09055,1,5,16,0,16,0,1,,,,,,,,,,,,,,,,,,,,,,,,,,,,,,,,,,
,,,,,,,,,,,,,,,,,,,,1,5,2021-01-11_13h58.32.437,CL_C2S3,2020.1.3,Win32,60,,,,,h,1,1.866875,0,media/dcnb.png,2,"[-1,1,-1]",3,0,Symb,h,RT,0,0,17,1,2,99,99,h,1.866875,1,5,17,0,17,0,1,,,,,,,,,,,,,,,,,,,,,,,,,,,,,,,,,,
,,,,,,,,,,,,,,,,,,,,1,5,2021-01-11_13h58.32.437,CL_C2S3,2020.1.3,Win32,60,,,,,i,1,0.740705,1,media/dfnb.png,2,"[-1,1,-1]",4,1,Symb,i,RT,0,0,18,1,2,99,99,i,0.740705,1,5,18,0,18,0,1,,,,,,,,,,,,,,,,,,,,,,,,,,,,,,,,,,
,,,,,,,,,,,,,,,,,,,,1,5,2021-01-11_13h58.32.437,CL_C2S3,2020.1.3,Win32,60,,,,,h,1,1.95044,1,media/dfnb.png,1,"[1,-1,-1]",1,1,Symb,h,RT,0,0,19,1,2,99,99,h,1.95044,1,5,19,0,19,0,1,,,,,,,,,,,,,,,,,,,,,,,,,,,,,,,,,,
,,,,,,,,,,,,,,,,,,,,1,5,2021-01-11_13h58.32.437,CL_C2S3,2020.1.3,Win32,60,,,,,h,1,2.4235,0,media/dcnb.png,2,"[-1,1,-1]",3,0,Symb,h,RT,0,0,20,1,2,99,99,h,2.4235,1,5,20,0,20,0,1,,,,,,,,,,,,,,,,,,,,,,,,,,,,,,,,,,
,,,,,,,,,,,,,,,,,,,,1,5,2021-01-11_13h58.32.437,CL_C2S3,2020.1.3,Win32,60,,,,,h,1,1.134915,1,media/dfnb.png,1,"[1,-1,-1]",1,1,Symb,h,RT,0,0,21,1,2,99,99,h,1.134915,1,5,21,0,21,0,1,,,,,,,,,,,,,,,,,,,,,,,,,,,,,,,,,,
,,,,,,,,,,,,,,,,,,,,1,5,2021-01-11_13h58.32.437,CL_C2S3,2020.1.3,Win32,60,,,,,u,1,0.61896,2,media/dknb.png,2,"[-1,1,-1]",5,0,Symb,u,RT,0,0,22,1,2,99,99,u,0.61896,1,5,22,0,22,0,1,,,,,,,,,,,,,,,,,,,,,,,,,,,,,,,,,,
,,,,,,,,,,,,,,,,,,,,1,5,2021-01-11_13h58.32.437,CL_C2S3,2020.1.3,Win32,60,,,,,u,1,0.588515,0,media/dcnb.png,1,"[1,-1,-1]",0,0,Symb,u,RT,0,0,23,1,2,99,99,u,0.588515,1,5,23,0,23,0,1,,,,,,,,,,,,,,,,,,,,,,,,,,,,,,,,,,
,,,,,,,,,,,,,,,,,,,,1,5,2021-01-11_13h58.32.437,CL_C2S3,2020.1.3,Win32,60,,,,,u,0,0.707925,1,media/dfnb.png,1,"[1,-1,-1]",1,1,Symb,h,RT,0,0,24,1,2,99,99,u,0.707925,0,5,24,0,24,0,1,,,,,,,,,,,,,,,,,,,,,,,,,,,,,,,,,,
,,,,,,,,,,,,,,,,,,,,1,5,2021-01-11_13h58.32.437,CL_C2S3,2020.1.3,Win32,60,,,,,u,0,0.60686,2,media/dknb.png,1,"[1,-1,-1]",2,0,Symb,i,RT,0,0,25,1,2,99,99,u,0.60686,0,5,25,0,25,0,1,,,,,,,,,,,,,,,,,,,,,,,,,,,,,,,,,,
,,,,,,,,,,,,,,,,,,,,1,5,2021-01-11_13h58.32.437,CL_C2S3,2020.1.3,Win32,60,,,,,h,1,1.067205,0,media/dcnb.png,2,"[-1,1,-1]",3,0,Symb,h,RT,0,0,26,1,2,99,99,h,1.067205,1,5,26,0,26,0,1,,,,,,,,,,,,,,,,,,,,,,,,,,,,,,,,,,
,,,,,,,,,,,,,,,,,,,,1,5,2021-01-11_13h58.32.437,CL_C2S3,2020.1.3,Win32,60,,,,,u,1,1.30663,0,media/dcnb.png,1,"[1,-1,-1]",0,0,Symb,u,RT,0,0,27,1,2,99,99,u,1.30663,1,5,27,0,27,0,1,,,,,,,,,,,,,,,,,,,,,,,,,,,,,,,,,,
,,,,,,,,,,,,,,,,,,,,1,5,2021-01-11_13h58.32.437,CL_C2S3,2020.1.3,Win32,60,,,,,u,1,0.51696,2,media/dknb.png,2,"[-1,1,-1]",5,0,Symb,u,RT,0,0,28,1,2,99,99,u,0.51696,1,5,28,0,28,0,1,,,,,,,,,,,,,,,,,,,,,,,,,,,,,,,,,,
,,,,,,,,,,,,,,,,,,,,1,5,2021-01-11_13h58.32.437,CL_C2S3,2020.1.3,Win32,60,,,,,i,1,0.82111,1,media/dfnb.png,2,"[-1,1,-1]",4,1,Symb,i,RT,0,0,29,1,2,99,99,i,0.82111,1,5,29,0,29,0,1,,,,,,,,,,,,,,,,,,,,,,,,,,,,,,,,,,
,,,,,,,,,,,,,,,,,,,,1,5,2021-01-11_13h58.32.437,CL_C2S3,2020.1.3,Win32,60,,,,,h,1,0.53372,1,media/dfnb.png,1,"[1,-1,-1]",1,1,Symb,h,RT,0,0,30,1,2,99,99,h,0.53372,1,5,30,0,30,0,1,,,,,,,,,,,,,,,,,,,,,,,,,,,,,,,,,,
,,,,,,,,,,,,,,,,,,,,1,5,2021-01-11_13h58.32.437,CL_C2S3,2020.1.3,Win32,60,,,,,h,1,0.38466,1,media/dfnb.png,1,"[1,-1,-1]",1,1,Symb,h,RT,0,0,31,1,2,99,99,h,0.38466,1,5,31,0,31,0,1,,,,,,,,,,,,,,,,,,,,,,,,,,,,,,,,,,
,,,,,,,,,,,,,,,,,,,,1,5,2021-01-11_13h58.32.437,CL_C2S3,2020.1.3,Win32,60,,,,,u,1,0.55078,0,media/dcnb.png,1,"[1,-1,-1]",0,0,Symb,u,RT,0,0,32,1,2,99,99,u,0.55078,1,5,32,0,32,0,1,,,,,,,,,,,,,,,,,,,,,,,,,,,,,,,,,,
,,,,,,,,,,,,,,,,,,,,1,5,2021-01-11_13h58.32.437,CL_C2S3,2020.1.3,Win32,60,,,,,i,1,0.66289,2,media/dknb.png,1,"[1,-1,-1]",2,0,Symb,i,RT,0,0,33,1,2,99,99,i,0.66289,1,5,33,0,33,0,1,,,,,,,,,,,,,,,,,,,,,,,,,,,,,,,,,,
,,,,,,,,,,,,,,,,,,,,1,5,2021-01-11_13h58.32.437,CL_C2S3,2020.1.3,Win32,60,,,,,u,1,1.3538,0,media/dcnb.png,1,"[1,-1,-1]",0,0,Symb,u,RT,0,0,34,1,2,99,99,u,1.3538,1,5,34,0,34,0,1,,,,,,,,,,,,,,,,,,,,,,,,,,,,,,,,,,
,,,,,,,,,,,,,,,,,,,,1,5,2021-01-11_13h58.32.437,CL_C2S3,2020.1.3,Win32,60,,,,,h,1,0.60962,0,media/dcnb.png,2,"[-1,1,-1]",3,0,Symb,h,RT,0,0,35,1,2,99,99,h,0.60962,1,5,35,0,35,0,1,,,,,,,,,,,,,,,,,,,,,,,,,,,,,,,,,,
,,,,,,,,,,,,,,,,,,,,1,5,2021-01-11_13h58.32.437,CL_C2S3,2020.1.3,Win32,60,,,,,h,1,0.420535,0,media/dcnb.png,2,"[-1,1,-1]",3,0,Symb,h,RT,0,0,36,1,2,99,99,h,0.420535,1,5,36,0,36,0,1,,,,,,,,,,,,,,,,,,,,,,,,,,,,,,,,,,
,,,,,,,,,,,,,,,,,,,,1,5,2021-01-11_13h58.32.437,CL_C2S3,2020.1.3,Win32,60,,,,,i,1,0.65439,1,media/dfnb.png,2,"[-1,1,-1]",4,1,Symb,i,RT,0,0,37,1,2,99,99,i,0.65439,1,5,37,0,37,0,1,,,,,,,,,,,,,,,,,,,,,,,,,,,,,,,,,,
,,,,,,,,,,,,,,,,,,,,1,5,2021-01-11_13h58.32.437,CL_C2S3,2020.1.3,Win32,60,,,,,i,1,0.403735,1,media/dfnb.png,2,"[-1,1,-1]",4,1,Symb,i,RT,0,0,38,1,2,99,99,i,0.403735,1,5,38,0,38,0,1,,,,,,,,,,,,,,,,,,,,,,,,,,,,,,,,,,
,,,,,,,,,,,,,,,,,,,,1,5,2021-01-11_13h58.32.437,CL_C2S3,2020.1.3,Win32,60,,,,,u,1,0.47178,2,media/dknb.png,2,"[-1,1,-1]",5,0,Symb,u,RT,0,0,39,1,2,99,99,u,0.47178,1,5,39,0,39,0,1,,,,,,,,,,,,,,,,,,,,,,,,,,,,,,,,,,
,,,,,,,,,,,,,,,,,,,,1,5,2021-01-11_13h58.32.437,CL_C2S3,2020.1.3,Win32,60,,,,,i,1,0.521745,2,media/dknb.png,1,"[1,-1,-1]",2,0,Symb,i,RT,0,0,40,1,2,99,99,i,0.521745,1,5,40,0,40,0,1,,,,,,,,,,,,,,,,,,,,,,,,,,,,,,,,,,
,,,,,,,,,,,,,,,,,,,,1,5,2021-01-11_13h58.32.437,CL_C2S3,2020.1.3,Win32,60,,,,,u,1,0.517315,2,media/dknb.png,2,"[-1,1,-1]",5,0,Symb,u,RT,0,0,41,1,2,99,99,u,0.517315,1,5,41,0,41,0,1,,,,,,,,,,,,,,,,,,,,,,,,,,,,,,,,,,
,,,,,,,,,,,,,,,,,,,,1,5,2021-01-11_13h58.32.437,CL_C2S3,2020.1.3,Win32,60,,,,,u,1,0.42574,2,media/dknb.png,2,"[-1,1,-1]",5,0,Symb,u,RT,0,0,42,1,2,99,99,u,0.42574,1,5,42,0,42,0,1,,,,,,,,,,,,,,,,,,,,,,,,,,,,,,,,,,
,,,,,,,,,,,,,,,,,,,,1,5,2021-01-11_13h58.32.437,CL_C2S3,2020.1.3,Win32,60,,,,,h,1,0.466745,0,media/dcnb.png,2,"[-1,1,-1]",3,0,Symb,h,RT,0,0,43,1,2,99,99,h,0.466745,1,5,43,0,43,0,1,,,,,,,,,,,,,,,,,,,,,,,,,,,,,,,,,,
,,,,,,,,,,,,,,,,,,,,1,5,2021-01-11_13h58.32.437,CL_C2S3,2020.1.3,Win32,60,,,,,i,1,0.512255,1,media/dfnb.png,2,"[-1,1,-1]",4,1,Symb,i,RT,0,0,44,1,2,99,99,i,0.512255,1,5,44,0,44,0,1,,,,,,,,,,,,,,,,,,,,,,,,,,,,,,,,,,
,,,,,,,,,,,,,,,,,,,,1,5,2021-01-11_13h58.32.437,CL_C2S3,2020.1.3,Win32,60,,,,,h,1,0.344655,1,media/dfnb.png,1,"[1,-1,-1]",1,1,Symb,h,RT,0,0,45,1,2,99,99,h,0.344655,1,5,45,0,45,0,1,,,,,,,,,,,,,,,,,,,,,,,,,,,,,,,,,,
,,,,,,,,,,,,,,,,,,,,1,5,2021-01-11_13h58.32.437,CL_C2S3,2020.1.3,Win32,60,,,,,i,1,0.627705,1,media/dfnb.png,2,"[-1,1,-1]",4,1,Symb,i,RT,0,0,46,1,2,99,99,i,0.627705,1,5,46,0,46,0,1,,,,,,,,,,,,,,,,,,,,,,,,,,,,,,,,,,
,,,,,,,,,,,,,,,,,,,,1,5,2021-01-11_13h58.32.437,CL_C2S3,2020.1.3,Win32,60,,,,,u,0,0.52565,2,media/dknb.png,1,"[1,-1,-1]",2,0,Symb,i,RT,0,0,47,1,2,99,99,u,0.52565,0,5,47,0,47,0,1,,,,,,,,,,,,,,,,,,,,,,,,,,,,,,,,,,
,,,,,,,,,,,,,,,,,,,,1,5,2021-01-11_13h58.32.437,CL_C2S3,2020.1.3,Win32,60,,,,,h,1,0.99961,0,media/dcnb.png,2,"[-1,1,-1]",3,0,Symb,h,RT,0,0,48,1,2,99,99,h,0.99961,1,5,48,0,48,0,1,,,,,,,,,,,,,,,,,,,,,,,,,,,,,,,,,,
,,,,,,,,,,,,,,,,,,,,1,5,2021-01-11_13h58.32.437,CL_C2S3,2020.1.3,Win32,60,,,,,u,1,0.850325,2,media/dknb.png,2,"[-1,1,-1]",5,0,Symb,u,RT,0,0,49,1,2,99,99,u,0.850325,1,5,49,0,49,0,1,,,,,,,,,,,,,,,,,,,,,,,,,,,,,,,,,,
,,,,,,,,,,,,,,,,,,,,1,5,2021-01-11_13h58.32.437,CL_C2S3,2020.1.3,Win32,60,,,,,u,1,1.1495,0,media/dcnb.png,1,"[1,-1,-1]",0,0,Symb,u,RT,0,0,50,1,2,99,99,u,1.1495,1,5,50,0,50,0,1,,,,,,,,,,,,,,,,,,,,,,,,,,,,,,,,,,
,,,,,,,,,,,,,,,,,,,,1,5,2021-01-11_13h58.32.437,CL_C2S3,2020.1.3,Win32,60,,,,,i,1,0.92324,2,media/dknb.png,1,"[1,-1,-1]",2,0,Symb,i,RT,0,0,51,1,2,99,99,i,0.92324,1,5,51,0,51,0,1,,,,,,,,,,,,,,,,,,,,,,,,,,,,,,,,,,
,,,,,,,,,,,,,,,,,,,,1,5,2021-01-11_13h58.32.437,CL_C2S3,2020.1.3,Win32,60,,,,,h,1,0.61702,1,media/dfnb.png,1,"[1,-1,-1]",1,1,Symb,h,RT,0,0,52,1,2,99,99,h,0.61702,1,5,52,0,52,0,1,,,,,,,,,,,,,,,,,,,,,,,,,,,,,,,,,,
,,,,,,,,,,,,,,,,,,,,1,5,2021-01-11_13h58.32.437,CL_C2S3,2020.1.3,Win32,60,,,,,u,1,0.83351,0,media/dcnb.png,1,"[1,-1,-1]",0,0,Symb,u,RT,0,0,53,1,2,99,99,u,0.83351,1,5,53,0,53,0,1,,,,,,,,,,,,,,,,,,,,,,,,,,,,,,,,,,
,,,,,,,,,,,,,,,,,,,,1,5,2021-01-11_13h58.32.437,CL_C2S3,2020.1.3,Win32,60,,,,,i,1,0.500755,2,media/dknb.png,1,"[1,-1,-1]",2,0,Symb,i,RT,0,0,54,1,2,99,99,i,0.500755,1,5,54,0,54,0,1,,,,,,,,,,,,,,,,,,,,,,,,,,,,,,,,,,
,,,,,,,,,,,,,,,,,,,,1,5,2021-01-11_13h58.32.437,CL_C2S3,2020.1.3,Win32,60,,,,,h,1,1.152785,1,media/dfnb.png,1,"[1,-1,-1]",1,1,Symb,h,RT,0,0,55,1,2,99,99,h,1.152785,1,5,55,0,55,0,1,,,,,,,,,,,,,,,,,,,,,,,,,,,,,,,,,,
,,,,,,,,,,,,,,,,,,,,1,5,2021-01-11_13h58.32.437,CL_C2S3,2020.1.3,Win32,60,,,,,h,0,0.57309,0,media/dcnb.png,1,"[1,-1,-1]",0,0,Symb,u,RT,0,0,56,1,2,99,99,h,0.57309,0,5,56,0,56,0,1,,,,,,,,,,,,,,,,,,,,,,,,,,,,,,,,,,
,,,,,,,,,,,,,,,,,,,,1,5,2021-01-11_13h58.32.437,CL_C2S3,2020.1.3,Win32,60,,,,,u,1,0.514455,2,media/dknb.png,2,"[-1,1,-1]",5,0,Symb,u,RT,0,0,57,1,2,99,99,u,0.514455,1,5,57,0,57,0,1,,,,,,,,,,,,,,,,,,,,,,,,,,,,,,,,,,
,,,,,,,,,,,,,,,,,,,,1,5,2021-01-11_13h58.32.437,CL_C2S3,2020.1.3,Win32,60,,,,,h,0,0.750335,1,media/dfnb.png,2,"[-1,1,-1]",4,1,Symb,i,RT,0,0,58,1,2,99,99,h,0.750335,0,5,58,0,58,0,1,,,,,,,,,,,,,,,,,,,,,,,,,,,,,,,,,,
,,,,,,,,,,,,,,,,,,,,1,5,2021-01-11_13h58.32.437,CL_C2S3,2020.1.3,Win32,60,,,,,h,1,0.71058,0,media/dcnb.png,2,"[-1,1,-1]",3,0,Symb,h,RT,0,0,59,1,2,99,99,h,0.71058,1,5,59,0,59,0,1,,,,,,,,,,,,,,,,,,,,,,,,,,,,,,,,,,
,,,,,,,,,,,,,,,,,,,,1,5,2021-01-11_13h58.32.437,CL_C2S3,2020.1.3,Win32,60,,,,,i,1,0.673485,2,media/dknb.png,1,"[1,-1,-1]",2,0,Symb,i,RT,0,0,60,1,2,99,99,i,0.673485,1,5,60,0,60,0,1,,,,,,,,,,,,,,,,,,,,,,,,,,,,,,,,,,
,,,,,,,,,,,,,,,,,,,,1,5,2021-01-11_13h58.32.437,CL_C2S3,2020.1.3,Win32,60,,,,,i,1,0.341425,1,media/dfnb.png,2,"[-1,1,-1]",4,1,Symb,i,RT,0,0,61,1,2,99,99,i,0.341425,1,5,61,0,61,0,1,,,,,,,,,,,,,,,,,,,,,,,,,,,,,,,,,,
,,,,,,,,,,,,,,,,,,,,1,5,2021-01-11_13h58.32.437,CL_C2S3,2020.1.3,Win32,60,,,,,u,1,0.550755,2,media/dknb.png,2,"[-1,1,-1]",5,0,Symb,u,RT,0,0,62,1,2,99,99,u,0.550755,1,5,62,0,62,0,1,,,,,,,,,,,,,,,,,,,,,,,,,,,,,,,,,,
,,,,,,,,,,,,,,,,,,,,1,5,2021-01-11_13h58.32.437,CL_C2S3,2020.1.3,Win32,60,,,,,i,1,0.50034,2,media/dknb.png,1,"[1,-1,-1]",2,0,Symb,i,RT,0,0,63,1,2,99,99,i,0.50034,1,5,63,0,63,0,1,,,,,,,,,,,,,,,,,,,,,,,,,,,,,,,,,,
,,,,,,,,,,,,,,,,,,,,1,5,2021-01-11_13h58.32.437,CL_C2S3,2020.1.3,Win32,60,,,,,u,1,0.43608,2,media/dknb.png,2,"[-1,1,-1]",5,0,Symb,u,RT,0,0,64,1,2,99,99,u,0.43608,1,5,64,0,64,0,1,,,,,,,,,,,,,,,,,,,,,,,,,,,,,,,,,,
,,,,,,,,,,,,,,,,,,,,1,5,2021-01-11_13h58.32.437,CL_C2S3,2020.1.3,Win32,60,,,,,h,0,0.916135,1,media/dfnb.png,2,"[-1,1,-1]",4,1,Symb,i,RT,0,0,65,1,2,99,99,h,0.916135,0,5,65,0,65,0,1,,,,,,,,,,,,,,,,,,,,,,,,,,,,,,,,,,
,,,,,,,,,,,,,,,,,,,,1,5,2021-01-11_13h58.32.437,CL_C2S3,2020.1.3,Win32,60,,,,,h,1,0.83374,0,media/dcnb.png,2,"[-1,1,-1]",3,0,Symb,h,RT,0,0,66,1,2,99,99,h,0.83374,1,5,66,0,66,0,1,,,,,,,,,,,,,,,,,,,,,,,,,,,,,,,,,,
,,,,,,,,,,,,,,,,,,,,1,5,2021-01-11_13h58.32.437,CL_C2S3,2020.1.3,Win32,60,,,,,h,1,0.36025,1,media/dfnb.png,1,"[1,-1,-1]",1,1,Symb,h,RT,0,0,67,1,2,99,99,h,0.36025,1,5,67,0,67,0,1,,,,,,,,,,,,,,,,,,,,,,,,,,,,,,,,,,
,,,,,,,,,,,,,,,,,,,,1,5,2021-01-11_13h58.32.437,CL_C2S3,2020.1.3,Win32,60,,,,,u,1,0.568375,0,media/dcnb.png,1,"[1,-1,-1]",0,0,Symb,u,RT,0,0,68,1,2,99,99,u,0.568375,1,5,68,0,68,0,1,,,,,,,,,,,,,,,,,,,,,,,,,,,,,,,,,,
,,,,,,,,,,,,,,,,,,,,1,5,2021-01-11_13h58.32.437,CL_C2S3,2020.1.3,Win32,60,,,,,u,1,0.417995,0,media/dcnb.png,1,"[1,-1,-1]",0,0,Symb,u,RT,0,0,69,1,2,99,99,u,0.417995,1,5,69,0,69,0,1,,,,,,,,,,,,,,,,,,,,,,,,,,,,,,,,,,
,,,,,,,,,,,,,,,,,,,,1,5,2021-01-11_13h58.32.437,CL_C2S3,2020.1.3,Win32,60,,,,,u,0,0.483625,0,media/dcnb.png,2,"[-1,1,-1]",3,0,Symb,h,RT,0,0,70,1,2,99,99,u,0.483625,0,5,70,0,70,0,1,,,,,,,,,,,,,,,,,,,,,,,,,,,,,,,,,,
,,,,,,,,,,,,,,,,,,,,1,5,2021-01-11_13h58.32.437,CL_C2S3,2020.1.3,Win32,60,,,,,h,1,0.773915,1,media/dfnb.png,1,"[1,-1,-1]",1,1,Symb,h,RT,0,0,71,1,2,99,99,h,0.773915,1,5,71,0,71,0,1,,,,,,,,,,,,,,,,,,,,,,,,,,,,,,,,,,
,,,,,,,,,,,,,,,,,,,,1,5,2021-01-11_13h58.32.437,CL_C2S3,2020.1.3,Win32,60,,,,,i,1,0.736505,1,media/dfnb.png,2,"[-1,1,-1]",4,1,Symb,i,RT,0,0,72,1,2,99,99,i,0.736505,1,5,72,0,72,0,1,,,,,,,,,,,,,,,,,,,,,,,,,,,,,,,,,,
,,,,,,,,,,,,,,,,,,,,1,5,2021-01-11_13h58.32.437,CL_C2S3,2020.1.3,Win32,60,,,,,h,1,0.78799,1,media/dfnb.png,1,"[1,-1,-1]",1,1,Symb,h,RT,0,0,73,1,2,99,99,h,0.78799,1,5,73,0,73,0,1,,,,,,,,,,,,,,,,,,,,,,,,,,,,,,,,,,
,,,,,,,,,,,,,,,,,,,,1,5,2021-01-11_13h58.32.437,CL_C2S3,2020.1.3,Win32,60,,,,,h,0,0.40085,1,media/dfnb.png,2,"[-1,1,-1]",4,1,Symb,i,RT,0,0,74,1,2,99,99,h,0.40085,0,5,74,0,74,0,1,,,,,,,,,,,,,,,,,,,,,,,,,,,,,,,,,,
,,,,,,,,,,,,,,,,,,,,1,5,2021-01-11_13h58.32.437,CL_C2S3,2020.1.3,Win32,60,,,,,u,1,0.7582,0,media/dcnb.png,1,"[1,-1,-1]",0,0,Symb,u,RT,0,0,75,1,2,99,99,u,0.7582,1,5,75,0,75,0,1,,,,,,,,,,,,,,,,,,,,,,,,,,,,,,,,,,
,,,,,,,,,,,,,,,,,,,,1,5,2021-01-11_13h58.32.437,CL_C2S3,2020.1.3,Win32,60,,,,,h,1,0.65092,0,media/dcnb.png,2,"[-1,1,-1]",3,0,Symb,h,RT,0,0,76,1,2,99,99,h,0.65092,1,5,76,0,76,0,1,,,,,,,,,,,,,,,,,,,,,,,,,,,,,,,,,,
,,,,,,,,,,,,,,,,,,,,1,5,2021-01-11_13h58.32.437,CL_C2S3,2020.1.3,Win32,60,,,,,u,1,0.67313,2,media/dknb.png,2,"[-1,1,-1]",5,0,Symb,u,RT,0,0,77,1,2,99,99,u,0.67313,1,5,77,0,77,0,1,,,,,,,,,,,,,,,,,,,,,,,,,,,,,,,,,,
,,,,,,,,,,,,,,,,,,,,1,5,2021-01-11_13h58.32.437,CL_C2S3,2020.1.3,Win32,60,,,,,i,1,0.516645,2,media/dknb.png,1,"[1,-1,-1]",2,0,Symb,i,RT,0,0,78,1,2,99,99,i,0.516645,1,5,78,0,78,0,1,,,,,,,,,,,,,,,,,,,,,,,,,,,,,,,,,,
,,,,,,,,,,,,,,,,,,,,1,5,2021-01-11_13h58.32.437,CL_C2S3,2020.1.3,Win32,60,,,,,h,1,0.535965,0,media/dcnb.png,2,"[-1,1,-1]",3,0,Symb,h,RT,0,0,79,1,2,99,99,h,0.535965,1,5,79,0,79,0,1,,,,,,,,,,,,,,,,,,,,,,,,,,,,,,,,,,
,,,,,,,,,,,,,,,,,,,,1,5,2021-01-11_13h58.32.437,CL_C2S3,2020.1.3,Win32,60,,,,,i,1,0.62596,2,media/dknb.png,1,"[1,-1,-1]",2,0,Symb,i,RT,0,0,80,1,2,99,99,i,0.62596,1,5,80,0,80,0,1,,,,,,,,,,,,,,,,,,,,,,,,,,,,,,,,,,
,,,,,,,,,,,,,,,,,,,,1,5,2021-01-11_13h58.32.437,CL_C2S3,2020.1.3,Win32,60,,,,,h,1,0.76677,1,media/dfnb.png,1,"[1,-1,-1]",1,1,Symb,h,RT,0,0,81,1,2,99,99,h,0.76677,1,5,81,0,81,0,1,,,,,,,,,,,,,,,,,,,,,,,,,,,,,,,,,,
,,,,,,,,,,,,,,,,,,,,1,5,2021-01-11_13h58.32.437,CL_C2S3,2020.1.3,Win32,60,,,,,u,1,0.526725,2,media/dknb.png,2,"[-1,1,-1]",5,0,Symb,u,RT,0,0,82,1,2,99,99,u,0.526725,1,5,82,0,82,0,1,,,,,,,,,,,,,,,,,,,,,,,,,,,,,,,,,,
,,,,,,,,,,,,,,,,,,,,1,5,2021-01-11_13h58.32.437,CL_C2S3,2020.1.3,Win32,60,,,,,u,1,0.70998,0,media/dcnb.png,1,"[1,-1,-1]",0,0,Symb,u,RT,0,0,83,1,2,99,99,u,0.70998,1,5,83,0,83,0,1,,,,,,,,,,,,,,,,,,,,,,,,,,,,,,,,,,
,,,,,,,,,,,,,,,,,,,,1,5,2021-01-11_13h58.32.437,CL_C2S3,2020.1.3,Win32,60,,,,,i,1,0.784065,1,media/dfnb.png,2,"[-1,1,-1]",4,1,Symb,i,RT,0,0,84,1,2,99,99,i,0.784065,1,5,84,0,84,0,1,,,,,,,,,,,,,,,,,,,,,,,,,,,,,,,,,,
,,,,,,,,,,,,,,,,,,,,1,5,2021-01-11_13h58.32.437,CL_C2S3,2020.1.3,Win32,60,,,,,h,1,0.5836,1,media/dfnb.png,1,"[1,-1,-1]",1,1,Symb,h,RT,0,0,85,1,2,99,99,h,0.5836,1,5,85,0,85,0,1,,,,,,,,,,,,,,,,,,,,,,,,,,,,,,,,,,
,,,,,,,,,,,,,,,,,,,,1,5,2021-01-11_13h58.32.437,CL_C2S3,2020.1.3,Win32,60,,,,,u,1,0.522225,2,media/dknb.png,2,"[-1,1,-1]",5,0,Symb,u,RT,0,0,86,1,2,99,99,u,0.522225,1,5,86,0,86,0,1,,,,,,,,,,,,,,,,,,,,,,,,,,,,,,,,,,
,,,,,,,,,,,,,,,,,,,,1,5,2021-01-11_13h58.32.437,CL_C2S3,2020.1.3,Win32,60,,,,,u,1,0.950425,0,media/dcnb.png,1,"[1,-1,-1]",0,0,Symb,u,RT,0,0,87,1,2,99,99,u,0.950425,1,5,87,0,87,0,1,,,,,,,,,,,,,,,,,,,,,,,,,,,,,,,,,,
,,,,,,,,,,,,,,,,,,,,1,5,2021-01-11_13h58.32.437,CL_C2S3,2020.1.3,Win32,60,,,,,i,1,0.563585,2,media/dknb.png,1,"[1,-1,-1]",2,0,Symb,i,RT,0,0,88,1,2,99,99,i,0.563585,1,5,88,0,88,0,1,,,,,,,,,,,,,,,,,,,,,,,,,,,,,,,,,,
,,,,,,,,,,,,,,,,,,,,1,5,2021-01-11_13h58.32.437,CL_C2S3,2020.1.3,Win32,60,,,,,h,1,0.773115,0,media/dcnb.png,2,"[-1,1,-1]",3,0,Symb,h,RT,0,0,89,1,2,99,99,h,0.773115,1,5,89,0,89,0,1,,,,,,,,,,,,,,,,,,,,,,,,,,,,,,,,,,
,,,,,,,,,,,,,,,,,,,,1,5,2021-01-11_13h58.32.437,CL_C2S3,2020.1.3,Win32,60,,,,,i,1,0.56188,2,media/dknb.png,1,"[1,-1,-1]",2,0,Symb,i,RT,0,0,90,1,2,99,99,i,0.56188,1,5,90,0,90,0,1,,,,,,,,,,,,,,,,,,,,,,,,,,,,,,,,,,
,,,,,,,,,,,,,,,,,,,,1,5,2021-01-11_13h58.32.437,CL_C2S3,2020.1.3,Win32,60,,,,,u,1,0.5265,0,media/dcnb.png,1,"[1,-1,-1]",0,0,Symb,u,RT,0,0,91,1,2,99,99,u,0.5265,1,5,91,0,91,0,1,,,,,,,,,,,,,,,,,,,,,,,,,,,,,,,,,,
,,,,,,,,,,,,,,,,,,,,1,5,2021-01-11_13h58.32.437,CL_C2S3,2020.1.3,Win32,60,,,,,h,1,0.505075,1,media/dfnb.png,1,"[1,-1,-1]",1,1,Symb,h,RT,0,0,92,1,2,99,99,h,0.505075,1,5,92,0,92,0,1,,,,,,,,,,,,,,,,,,,,,,,,,,,,,,,,,,
,,,,,,,,,,,,,,,,,,,,1,5,2021-01-11_13h58.32.437,CL_C2S3,2020.1.3,Win32,60,,,,,u,1,0.499835,2,media/dknb.png,2,"[-1,1,-1]",5,0,Symb,u,RT,0,0,93,1,2,99,99,u,0.499835,1,5,93,0,93,0,1,,,,,,,,,,,,,,,,,,,,,,,,,,,,,,,,,,
,,,,,,,,,,,,,,,,,,,,1,5,2021-01-11_13h58.32.437,CL_C2S3,2020.1.3,Win32,60,,,,,h,1,0.55899,0,media/dcnb.png,2,"[-1,1,-1]",3,0,Symb,h,RT,0,0,94,1,2,99,99,h,0.55899,1,5,94,0,94,0,1,,,,,,,,,,,,,,,,,,,,,,,,,,,,,,,,,,
,,,,,,,,,,,,,,,,,,,,1,5,2021-01-11_13h58.32.437,CL_C2S3,2020.1.3,Win32,60,,,,,i,1,0.635955,1,media/dfnb.png,2,"[-1,1,-1]",4,1,Symb,i,RT,0,0,95,1,2,99,99,i,0.635955,1,5,95,0,95,0,1,,,,,,,,,,,,,,,,,,,,,,,,,,,,,,,,,,
,,,,,,,,,,,,,,,,,,,,1,5,2021-01-11_13h58.32.437,CL_C2S3,2020.1.3,Win32,60,,,,,i,1,0.667165,1,media/dfnb.png,2,"[-1,1,-1]",4,1,Symb,i,RT,0,0,96,1,2,99,99,i,0.667165,1,5,96,0,96,0,1,,,,,,,,,,,,,,,,,,,,,,,,,,,,,,,,,,
,,,,,,,,,,,,,,,,,,,,1,5,2021-01-11_13h58.32.437,CL_C2S3,2020.1.3,Win32,60,,,,,h,1,0.535095,1,media/dfnb.png,1,"[1,-1,-1]",1,1,Symb,h,RT,0,0,97,1,2,99,99,h,0.535095,1,5,97,0,97,0,1,,,,,,,,,,,,,,,,,,,,,,,,,,,,,,,,,,
,,,,,,,,,,,,,,,,,,,,1,5,2021-01-11_13h58.32.437,CL_C2S3,2020.1.3,Win32,60,,,,,i,1,0.766785,2,media/dknb.png,1,"[1,-1,-1]",2,0,Symb,i,RT,0,0,98,1,2,99,99,i,0.766785,1,5,98,0,98,0,1,,,,,,,,,,,,,,,,,,,,,,,,,,,,,,,,,,
,,,,,,,,,,,,,,,,,,,,1,5,2021-01-11_13h58.32.437,CL_C2S3,2020.1.3,Win32,60,,,,,u,1,0.45025,2,media/dknb.png,2,"[-1,1,-1]",5,0,Symb,u,RT,0,0,99,1,2,99,99,u,0.45025,1,5,99,0,99,0,1,,,,,,,,,,,,,,,,,,,,,,,,,,,,,,,,,,
,,,,,,,,,,,,,,,,,,,,1,5,2021-01-11_13h58.32.437,CL_C2S3,2020.1.3,Win32,60,,,,,u,1,0.817315,0,media/dcnb.png,1,"[1,-1,-1]",0,0,Symb,u,RT,0,0,100,1,2,99,99,u,0.817315,1,5,100,0,100,0,1,,,,,,,,,,,,,,,,,,,,,,,,,,,,,,,,,,
,,,,,,,,,,,,,,,,,,,,1,5,2021-01-11_13h58.32.437,CL_C2S3,2020.1.3,Win32,60,,,,,h,1,0.55018,0,media/dcnb.png,2,"[-1,1,-1]",3,0,Symb,h,RT,0,0,101,1,2,99,99,h,0.55018,1,5,101,0,101,0,1,,,,,,,,,,,,,,,,,,,,,,,,,,,,,,,,,,
,,,,,,,,,,,,,,,,,,,,1,5,2021-01-11_13h58.32.437,CL_C2S3,2020.1.3,Win32,60,,,,,i,1,0.57026,1,media/dfnb.png,2,"[-1,1,-1]",4,1,Symb,i,RT,0,0,102,1,2,99,99,i,0.57026,1,5,102,0,102,0,1,,,,,,,,,,,,,,,,,,,,,,,,,,,,,,,,,,
,,,,,,,,,,,,,,,,,,,,1,5,2021-01-11_13h58.32.437,CL_C2S3,2020.1.3,Win32,60,,,,,u,1,0.55686,2,media/dknb.png,2,"[-1,1,-1]",5,0,Symb,u,RT,0,0,103,1,2,99,99,u,0.55686,1,5,103,0,103,0,1,,,,,,,,,,,,,,,,,,,,,,,,,,,,,,,,,,
,,,,,,,,,,,,,,,,,,,,1,5,2021-01-11_13h58.32.437,CL_C2S3,2020.1.3,Win32,60,,,,,i,1,0.8837,1,media/dfnb.png,2,"[-1,1,-1]",4,1,Symb,i,RT,0,0,104,1,2,99,99,i,0.8837,1,5,104,0,104,0,1,,,,,,,,,,,,,,,,,,,,,,,,,,,,,,,,,,
,,,,,,,,,,,,,,,,,,,,1,5,2021-01-11_13h58.32.437,CL_C2S3,2020.1.3,Win32,60,,,,,h,1,0.745995,0,media/dcnb.png,2,"[-1,1,-1]",3,0,Symb,h,RT,0,0,105,1,2,99,99,h,0.745995,1,5,105,0,105,0,1,,,,,,,,,,,,,,,,,,,,,,,,,,,,,,,,,,
,,,,,,,,,,,,,,,,,,,,1,5,2021-01-11_13h58.32.437,CL_C2S3,2020.1.3,Win32,60,,,,,i,1,0.625425,2,media/dknb.png,1,"[1,-1,-1]",2,0,Symb,i,RT,0,0,106,1,2,99,99,i,0.625425,1,5,106,0,106,0,1,,,,,,,,,,,,,,,,,,,,,,,,,,,,,,,,,,
,,,,,,,,,,,,,,,,,,,,1,5,2021-01-11_13h58.32.437,CL_C2S3,2020.1.3,Win32,60,,,,,h,1,0.900075,1,media/dfnb.png,1,"[1,-1,-1]",1,1,Symb,h,RT,0,0,107,1,2,99,99,h,0.900075,1,5,107,0,107,0,1,,,,,,,,,,,,,,,,,,,,,,,,,,,,,,,,,,
,,,,,,,,,,,,,,,,,,,,1,5,2021-01-11_13h58.32.437,CL_C2S3,2020.1.3,Win32,60,,,,,u,0,0.527,2,media/dknb.png,1,"[1,-1,-1]",2,0,Symb,i,RT,0,0,108,1,2,99,99,u,0.527,0,5,108,0,108,0,1,,,,,,,,,,,,,,,,,,,,,,,,,,,,,,,,,,
,,,,,,,,,,,,,,,,,,,,1,5,2021-01-11_13h58.32.437,CL_C2S3,2020.1.3,Win32,60,,,,,h,1,0.723855,1,media/dfnb.png,1,"[1,-1,-1]",1,1,Symb,h,RT,0,0,109,1,2,99,99,h,0.723855,1,5,109,0,109,0,1,,,,,,,,,,,,,,,,,,,,,,,,,,,,,,,,,,
,,,,,,,,,,,,,,,,,,,,1,5,2021-01-11_13h58.32.437,CL_C2S3,2020.1.3,Win32,60,,,,,h,1,1.04354,0,media/dcnb.png,2,"[-1,1,-1]",3,0,Symb,h,RT,0,0,110,1,2,99,99,h,1.04354,1,5,110,0,110,0,1,,,,,,,,,,,,,,,,,,,,,,,,,,,,,,,,,,
,,,,,,,,,,,,,,,,,,,,1,5,2021-01-11_13h58.32.437,CL_C2S3,2020.1.3,Win32,60,,,,,u,1,0.51335,2,media/dknb.png,2,"[-1,1,-1]",5,0,Symb,u,RT,0,0,111,1,2,99,99,u,0.51335,1,5,111,0,111,0,1,,,,,,,,,,,,,,,,,,,,,,,,,,,,,,,,,,
,,,,,,,,,,,,,,,,,,,,1,5,2021-01-11_13h58.32.437,CL_C2S3,2020.1.3,Win32,60,,,,,h,0,0.56859,0,media/dcnb.png,1,"[1,-1,-1]",0,0,Symb,u,RT,0,0,112,1,2,99,99,h,0.56859,0,5,112,0,112,0,1,,,,,,,,,,,,,,,,,,,,,,,,,,,,,,,,,,
,,,,,,,,,,,,,,,,,,,,1,5,2021-01-11_13h58.32.437,CL_C2S3,2020.1.3,Win32,60,,,,,u,1,0.455575,0,media/dcnb.png,1,"[1,-1,-1]",0,0,Symb,u,RT,0,0,113,1,2,99,99,u,0.455575,1,5,113,0,113,0,1,,,,,,,,,,,,,,,,,,,,,,,,,,,,,,,,,,
,,,,,,,,,,,,,,,,,,,,1,5,2021-01-11_13h58.32.437,CL_C2S3,2020.1.3,Win32,60,,,,,i,1,0.55522,1,media/dfnb.png,2,"[-1,1,-1]",4,1,Symb,i,RT,0,0,114,1,2,99,99,i,0.55522,1,5,114,0,114,0,1,,,,,,,,,,,,,,,,,,,,,,,,,,,,,,,,,,
,,,,,,,,,,,,,,,,,,,,1,5,2021-01-11_13h58.32.437,CL_C2S3,2020.1.3,Win32,60,,,,,u,1,1.03378,2,media/dknb.png,2,"[-1,1,-1]",5,0,Symb,u,RT,0,0,115,1,2,99,99,u,1.03378,1,5,115,0,115,0,1,,,,,,,,,,,,,,,,,,,,,,,,,,,,,,,,,,
,,,,,,,,,,,,,,,,,,,,1,5,2021-01-11_13h58.32.437,CL_C2S3,2020.1.3,Win32,60,,,,,h,1,1.301455,1,media/dfnb.png,1,"[1,-1,-1]",1,1,Symb,h,RT,0,0,116,1,2,99,99,h,1.301455,1,5,116,0,116,0,1,,,,,,,,,,,,,,,,,,,,,,,,,,,,,,,,,,
,,,,,,,,,,,,,,,,,,,,1,5,2021-01-11_13h58.32.437,CL_C2S3,2020.1.3,Win32,60,,,,,u,1,1.400765,0,media/dcnb.png,1,"[1,-1,-1]",0,0,Symb,u,RT,0,0,117,1,2,99,99,u,1.400765,1,5,117,0,117,0,1,,,,,,,,,,,,,,,,,,,,,,,,,,,,,,,,,,
,,,,,,,,,,,,,,,,,,,,1,5,2021-01-11_13h58.32.437,CL_C2S3,2020.1.3,Win32,60,,,,,i,1,0.71394,2,media/dknb.png,1,"[1,-1,-1]",2,0,Symb,i,RT,0,0,118,1,2,99,99,i,0.71394,1,5,118,0,118,0,1,,,,,,,,,,,,,,,,,,,,,,,,,,,,,,,,,,
,,,,,,,,,,,,,,,,,,,,1,5,2021-01-11_13h58.32.437,CL_C2S3,2020.1.3,Win32,60,,,,,h,1,0.70641,0,media/dcnb.png,2,"[-1,1,-1]",3,0,Symb,h,RT,0,0,119,1,2,99,99,h,0.70641,1,5,119,0,119,0,1,,,,,,,,,,,,,,,,,,,,,,,,,,,,,,,,,,
,,,,,,,,,,,,,,,,,,,,1,5,2021-01-11_13h58.32.437,CL_C2S3,2020.1.3,Win32,60,,,,,,,,,,,,,,,,,,,,,,,,,,,,,,,,,1,0,1,0,1,,,,,,,,,,,,,,,,,,,,,,,,,,,,,
,,,,,,,,,,,,,,,,,,,,1,5,2021-01-11_13h58.32.437,CL_C2S3,2020.1.3,Win32,60,,,h,8.725925,i,1,0.703065,1,media/dfnb.png,2,"[-1,1,-1]",4,1,Symb,i,RT,0,0,0,1,3,99,99,i,0.703065,1,5,0,0,0,0,1,,,,,,,,,,,,,,,,,,,,,,,,,,,,,,,,,,
,,,,,,,,,,,,,,,,,,,,1,5,2021-01-11_13h58.32.437,CL_C2S3,2020.1.3,Win32,60,,,,,h,1,0.972645,1,media/dfnb.png,1,"[1,-1,-1]",1,1,Symb,h,RT,0,0,1,1,3,99,99,h,0.972645,1,5,1,0,1,0,1,,,,,,,,,,,,,,,,,,,,,,,,,,,,,,,,,,
,,,,,,,,,,,,,,,,,,,,1,5,2021-01-11_13h58.32.437,CL_C2S3,2020.1.3,Win32,60,,,,,u,1,0.669825,2,media/dknb.png,2,"[-1,1,-1]",5,0,Symb,u,RT,0,0,2,1,3,99,99,u,0.669825,1,5,2,0,2,0,1,,,,,,,,,,,,,,,,,,,,,,,,,,,,,,,,,,
,,,,,,,,,,,,,,,,,,,,1,5,2021-01-11_13h58.32.437,CL_C2S3,2020.1.3,Win32,60,,,,,u,1,1.39231,0,media/dcnb.png,1,"[1,-1,-1]",0,0,Symb,u,RT,0,0,3,1,3,99,99,u,1.39231,1,5,3,0,3,0,1,,,,,,,,,,,,,,,,,,,,,,,,,,,,,,,,,,
,,,,,,,,,,,,,,,,,,,,1,5,2021-01-11_13h58.32.437,CL_C2S3,2020.1.3,Win32,60,,,,,u,1,0.612185,2,media/dknb.png,2,"[-1,1,-1]",5,0,Symb,u,RT,0,0,4,1,3,99,99,u,0.612185,1,5,4,0,4,0,1,,,,,,,,,,,,,,,,,,,,,,,,,,,,,,,,,,
,,,,,,,,,,,,,,,,,,,,1,5,2021-01-11_13h58.32.437,CL_C2S3,2020.1.3,Win32,60,,,,,h,1,0.60145,1,media/dfnb.png,1,"[1,-1,-1]",1,1,Symb,h,RT,0,0,5,1,3,99,99,h,0.60145,1,5,5,0,5,0,1,,,,,,,,,,,,,,,,,,,,,,,,,,,,,,,,,,
,,,,,,,,,,,,,,,,,,,,1,5,2021-01-11_13h58.32.437,CL_C2S3,2020.1.3,Win32,60,,,,,h,1,0.71724,0,media/dcnb.png,2,"[-1,1,-1]",3,0,Symb,h,RT,0,0,6,1,3,99,99,h,0.71724,1,5,6,0,6,0,1,,,,,,,,,,,,,,,,,,,,,,,,,,,,,,,,,,
,,,,,,,,,,,,,,,,,,,,1,5,2021-01-11_13h58.32.437,CL_C2S3,2020.1.3,Win32,60,,,,,h,1,0.41899,0,media/dcnb.png,2,"[-1,1,-1]",3,0,Symb,h,RT,0,0,7,1,3,99,99,h,0.41899,1,5,7,0,7,0,1,,,,,,,,,,,,,,,,,,,,,,,,,,,,,,,,,,
,,,,,,,,,,,,,,,,,,,,1,5,2021-01-11_13h58.32.437,CL_C2S3,2020.1.3,Win32,60,,,,,i,1,0.388765,2,media/dknb.png,1,"[1,-1,-1]",2,0,Symb,i,RT,0,0,8,1,3,99,99,i,0.388765,1,5,8,0,8,0,1,,,,,,,,,,,,,,,,,,,,,,,,,,,,,,,,,,
,,,,,,,,,,,,,,,,,,,,1,5,2021-01-11_13h58.32.437,CL_C2S3,2020.1.3,Win32,60,,,,,i,1,0.600245,1,media/dfnb.png,2,"[-1,1,-1]",4,1,Symb,i,RT,0,0,9,1,3,99,99,i,0.600245,1,5,9,0,9,0,1,,,,,,,,,,,,,,,,,,,,,,,,,,,,,,,,,,
,,,,,,,,,,,,,,,,,,,,1,5,2021-01-11_13h58.32.437,CL_C2S3,2020.1.3,Win32,60,,,,,u,1,0.58363,0,media/dcnb.png,1,"[1,-1,-1]",0,0,Symb,u,RT,0,0,10,1,3,99,99,u,0.58363,1,5,10,0,10,0,1,,,,,,,,,,,,,,,,,,,,,,,,,,,,,,,,,,
,,,,,,,,,,,,,,,,,,,,1,5,2021-01-11_13h58.32.437,CL_C2S3,2020.1.3,Win32,60,,,,,i,1,0.458325,2,media/dknb.png,1,"[1,-1,-1]",2,0,Symb,i,RT,0,0,11,1,3,99,99,i,0.458325,1,5,11,0,11,0,1,,,,,,,,,,,,,,,,,,,,,,,,,,,,,,,,,,
,,,,,,,,,,,,,,,,,,,,1,5,2021-01-11_13h58.32.437,CL_C2S3,2020.1.3,Win32,60,,,,,h,1,0.55665,0,media/dcnb.png,2,"[-1,1,-1]",3,0,Symb,h,RT,0,0,12,1,3,99,99,h,0.55665,1,5,12,0,12,0,1,,,,,,,,,,,,,,,,,,,,,,,,,,,,,,,,,,
,,,,,,,,,,,,,,,,,,,,1,5,2021-01-11_13h58.32.437,CL_C2S3,2020.1.3,Win32,60,,,,,h,1,0.43478,0,media/dcnb.png,2,"[-1,1,-1]",3,0,Symb,h,RT,0,0,13,1,3,99,99,h,0.43478,1,5,13,0,13,0,1,,,,,,,,,,,,,,,,,,,,,,,,,,,,,,,,,,
,,,,,,,,,,,,,,,,,,,,1,5,2021-01-11_13h58.32.437,CL_C2S3,2020.1.3,Win32,60,,,,,u,1,0.629,0,media/dcnb.png,1,"[1,-1,-1]",0,0,Symb,u,RT,0,0,14,1,3,99,99,u,0.629,1,5,14,0,14,0,1,,,,,,,,,,,,,,,,,,,,,,,,,,,,,,,,,,
,,,,,,,,,,,,,,,,,,,,1,5,2021-01-11_13h58.32.437,CL_C2S3,2020.1.3,Win32,60,,,,,h,1,0.509375,1,media/dfnb.png,1,"[1,-1,-1]",1,1,Symb,h,RT,0,0,15,1,3,99,99,h,0.509375,1,5,15,0,15,0,1,,,,,,,,,,,,,,,,,,,,,,,,,,,,,,,,,,
,,,,,,,,,,,,,,,,,,,,1,5,2021-01-11_13h58.32.437,CL_C2S3,2020.1.3,Win32,60,,,,,h,1,0.367705,1,media/dfnb.png,1,"[1,-1,-1]",1,1,Symb,h,RT,0,0,16,1,3,99,99,h,0.367705,1,5,16,0,16,0,1,,,,,,,,,,,,,,,,,,,,,,,,,,,,,,,,,,
,,,,,,,,,,,,,,,,,,,,1,5,2021-01-11_13h58.32.437,CL_C2S3,2020.1.3,Win32,60,,,,,i,1,0.57945,1,media/dfnb.png,2,"[-1,1,-1]",4,1,Symb,i,RT,0,0,17,1,3,99,99,i,0.57945,1,5,17,0,17,0,1,,,,,,,,,,,,,,,,,,,,,,,,,,,,,,,,,,
,,,,,,,,,,,,,,,,,,,,1,5,2021-01-11_13h58.32.437,CL_C2S3,2020.1.3,Win32,60,,,,,u,1,1.677415,0,media/dcnb.png,1,"[1,-1,-1]",0,0,Symb,u,RT,0,0,18,1,3,99,99,u,1.677415,1,5,18,0,18,0,1,,,,,,,,,,,,,,,,,,,,,,,,,,,,,,,,,,
,,,,,,,,,,,,,,,,,,,,1,5,2021-01-11_13h58.32.437,CL_C2S3,2020.1.3,Win32,60,,,,,i,1,0.56635,2,media/dknb.png,1,"[1,-1,-1]",2,0,Symb,i,RT,0,0,19,1,3,99,99,i,0.56635,1,5,19,0,19,0,1,,,,,,,,,,,,,,,,,,,,,,,,,,,,,,,,,,
,,,,,,,,,,,,,,,,,,,,1,5,2021-01-11_13h58.32.437,CL_C2S3,2020.1.3,Win32,60,,,,,u,1,0.534945,2,media/dknb.png,2,"[-1,1,-1]",5,0,Symb,u,RT,0,0,20,1,3,99,99,u,0.534945,1,5,20,0,20,0,1,,,,,,,,,,,,,,,,,,,,,,,,,,,,,,,,,,
,,,,,,,,,,,,,,,,,,,,1,5,2021-01-11_13h58.32.437,CL_C2S3,2020.1.3,Win32,60,,,,,i,1,0.92093,1,media/dfnb.png,2,"[-1,1,-1]",4,1,Symb,i,RT,0,0,21,1,3,99,99,i,0.92093,1,5,21,0,21,0,1,,,,,,,,,,,,,,,,,,,,,,,,,,,,,,,,,,
,,,,,,,,,,,,,,,,,,,,1,5,2021-01-11_13h58.32.437,CL_C2S3,2020.1.3,Win32,60,,,,,u,1,1.322285,2,media/dknb.png,2,"[-1,1,-1]",5,0,Symb,u,RT,0,0,22,1,3,99,99,u,1.322285,1,5,22,0,22,0,1,,,,,,,,,,,,,,,,,,,,,,,,,,,,,,,,,,
,,,,,,,,,,,,,,,,,,,,1,5,2021-01-11_13h58.32.437,CL_C2S3,2020.1.3,Win32,60,,,,,i,1,0.48597,2,media/dknb.png,1,"[1,-1,-1]",2,0,Symb,i,RT,0,0,23,1,3,99,99,i,0.48597,1,5,23,0,23,0,1,,,,,,,,,,,,,,,,,,,,,,,,,,,,,,,,,,
,,,,,,,,,,,,,,,,,,,,1,5,2021-01-11_13h58.32.437,CL_C2S3,2020.1.3,Win32,60,,,,,h,1,0.501635,1,media/dfnb.png,1,"[1,-1,-1]",1,1,Symb,h,RT,0,0,24,1,3,99,99,h,0.501635,1,5,24,0,24,0,1,,,,,,,,,,,,,,,,,,,,,,,,,,,,,,,,,,
,,,,,,,,,,,,,,,,,,,,1,5,2021-01-11_13h58.32.437,CL_C2S3,2020.1.3,Win32,60,,,,,h,1,0.61198,0,media/dcnb.png,2,"[-1,1,-1]",3,0,Symb,h,RT,0,0,25,1,3,99,99,h,0.61198,1,5,25,0,25,0,1,,,,,,,,,,,,,,,,,,,,,,,,,,,,,,,,,,
,,,,,,,,,,,,,,,,,,,,1,5,2021-01-11_13h58.32.437,CL_C2S3,2020.1.3,Win32,60,,,,,u,1,0.537235,0,media/dcnb.png,1,"[1,-1,-1]",0,0,Symb,u,RT,0,0,26,1,3,99,99,u,0.537235,1,5,26,0,26,0,1,,,,,,,,,,,,,,,,,,,,,,,,,,,,,,,,,,
,,,,,,,,,,,,,,,,,,,,1,5,2021-01-11_13h58.32.437,CL_C2S3,2020.1.3,Win32,60,,,,,u,1,0.383645,2,media/dknb.png,2,"[-1,1,-1]",5,0,Symb,u,RT,0,0,27,1,3,99,99,u,0.383645,1,5,27,0,27,0,1,,,,,,,,,,,,,,,,,,,,,,,,,,,,,,,,,,
,,,,,,,,,,,,,,,,,,,,1,5,2021-01-11_13h58.32.437,CL_C2S3,2020.1.3,Win32,60,,,,,i,1,0.52301,2,media/dknb.png,1,"[1,-1,-1]",2,0,Symb,i,RT,0,0,28,1,3,99,99,i,0.52301,1,5,28,0,28,0,1,,,,,,,,,,,,,,,,,,,,,,,,,,,,,,,,,,
,,,,,,,,,,,,,,,,,,,,1,5,2021-01-11_13h58.32.437,CL_C2S3,2020.1.3,Win32,60,,,,,i,1,0.351825,1,media/dfnb.png,2,"[-1,1,-1]",4,1,Symb,i,RT,0,0,29,1,3,99,99,i,0.351825,1,5,29,0,29,0,1,,,,,,,,,,,,,,,,,,,,,,,,,,,,,,,,,,
,,,,,,,,,,,,,,,,,,,,1,5,2021-01-11_13h58.32.437,CL_C2S3,2020.1.3,Win32,60,,,,,i,1,0.368515,1,media/dfnb.png,2,"[-1,1,-1]",4,1,Symb,i,RT,0,0,30,1,3,99,99,i,0.368515,1,5,30,0,30,0,1,,,,,,,,,,,,,,,,,,,,,,,,,,,,,,,,,,
,,,,,,,,,,,,,,,,,,,,1,5,2021-01-11_13h58.32.437,CL_C2S3,2020.1.3,Win32,60,,,,,u,0,0.545355,2,media/dknb.png,1,"[1,-1,-1]",2,0,Symb,i,RT,0,0,31,1,3,99,99,u,0.545355,0,5,31,0,31,0,1,,,,,,,,,,,,,,,,,,,,,,,,,,,,,,,,,,
,,,,,,,,,,,,,,,,,,,,1,5,2021-01-11_13h58.32.437,CL_C2S3,2020.1.3,Win32,60,,,,,h,1,0.72536,1,media/dfnb.png,1,"[1,-1,-1]",1,1,Symb,h,RT,0,0,32,1,3,99,99,h,0.72536,1,5,32,0,32,0,1,,,,,,,,,,,,,,,,,,,,,,,,,,,,,,,,,,
,,,,,,,,,,,,,,,,,,,,1,5,2021-01-11_13h58.32.437,CL_C2S3,2020.1.3,Win32,60,,,,,h,1,0.41995,1,media/dfnb.png,1,"[1,-1,-1]",1,1,Symb,h,RT,0,0,33,1,3,99,99,h,0.41995,1,5,33,0,33,0,1,,,,,,,,,,,,,,,,,,,,,,,,,,,,,,,,,,
,,,,,,,,,,,,,,,,,,,,1,5,2021-01-11_13h58.32.437,CL_C2S3,2020.1.3,Win32,60,,,,,u,1,0.735665,0,media/dcnb.png,1,"[1,-1,-1]",0,0,Symb,u,RT,0,0,34,1,3,99,99,u,0.735665,1,5,34,0,34,0,1,,,,,,,,,,,,,,,,,,,,,,,,,,,,,,,,,,
,,,,,,,,,,,,,,,,,,,,1,5,2021-01-11_13h58.32.437,CL_C2S3,2020.1.3,Win32,60,,,,,i,0,1.81124,2,media/dknb.png,2,"[-1,1,-1]",5,0,Symb,u,RT,0,0,35,1,3,99,99,i,1.81124,0,5,35,0,35,0,1,,,,,,,,,,,,,,,,,,,,,,,,,,,,,,,,,,
,,,,,,,,,,,,,,,,,,,,1,5,2021-01-11_13h58.32.437,CL_C2S3,2020.1.3,Win32,60,,,,,u,1,1.017335,0,media/dcnb.png,1,"[1,-1,-1]",0,0,Symb,u,RT,0,0,36,1,3,99,99,u,1.017335,1,5,36,0,36,0,1,,,,,,,,,,,,,,,,,,,,,,,,,,,,,,,,,,
,,,,,,,,,,,,,,,,,,,,1,5,2021-01-11_13h58.32.437,CL_C2S3,2020.1.3,Win32,60,,,,,h,1,0.746415,0,media/dcnb.png,2,"[-1,1,-1]",3,0,Symb,h,RT,0,0,37,1,3,99,99,h,0.746415,1,5,37,0,37,0,1,,,,,,,,,,,,,,,,,,,,,,,,,,,,,,,,,,
,,,,,,,,,,,,,,,,,,,,1,5,2021-01-11_13h58.32.437,CL_C2S3,2020.1.3,Win32,60,,,,,i,1,0.643955,2,media/dknb.png,1,"[1,-1,-1]",2,0,Symb,i,RT,0,0,38,1,3,99,99,i,0.643955,1,5,38,0,38,0,1,,,,,,,,,,,,,,,,,,,,,,,,,,,,,,,,,,
,,,,,,,,,,,,,,,,,,,,1,5,2021-01-11_13h58.32.437,CL_C2S3,2020.1.3,Win32,60,,,,,h,1,0.809765,0,media/dcnb.png,2,"[-1,1,-1]",3,0,Symb,h,RT,0,0,39,1,3,99,99,h,0.809765,1,5,39,0,39,0,1,,,,,,,,,,,,,,,,,,,,,,,,,,,,,,,,,,
,,,,,,,,,,,,,,,,,,,,1,5,2021-01-11_13h58.32.437,CL_C2S3,2020.1.3,Win32,60,,,,,u,1,0.626625,2,media/dknb.png,2,"[-1,1,-1]",5,0,Symb,u,RT,0,0,40,1,3,99,99,u,0.626625,1,5,40,0,40,0,1,,,,,,,,,,,,,,,,,,,,,,,,,,,,,,,,,,
,,,,,,,,,,,,,,,,,,,,1,5,2021-01-11_13h58.32.437,CL_C2S3,2020.1.3,Win32,60,,,,,i,1,0.691795,1,media/dfnb.png,2,"[-1,1,-1]",4,1,Symb,i,RT,0,0,41,1,3,99,99,i,0.691795,1,5,41,0,41,0,1,,,,,,,,,,,,,,,,,,,,,,,,,,,,,,,,,,
,,,,,,,,,,,,,,,,,,,,1,5,2021-01-11_13h58.32.437,CL_C2S3,2020.1.3,Win32,60,,,,,i,1,0.595965,2,media/dknb.png,1,"[1,-1,-1]",2,0,Symb,i,RT,0,0,42,1,3,99,99,i,0.595965,1,5,42,0,42,0,1,,,,,,,,,,,,,,,,,,,,,,,,,,,,,,,,,,
,,,,,,,,,,,,,,,,,,,,1,5,2021-01-11_13h58.32.437,CL_C2S3,2020.1.3,Win32,60,,,,,h,1,0.640175,0,media/dcnb.png,2,"[-1,1,-1]",3,0,Symb,h,RT,0,0,43,1,3,99,99,h,0.640175,1,5,43,0,43,0,1,,,,,,,,,,,,,,,,,,,,,,,,,,,,,,,,,,
,,,,,,,,,,,,,,,,,,,,1,5,2021-01-11_13h58.32.437,CL_C2S3,2020.1.3,Win32,60,,,,,u,1,0.5097,2,media/dknb.png,2,"[-1,1,-1]",5,0,Symb,u,RT,0,0,44,1,3,99,99,u,0.5097,1,5,44,0,44,0,1,,,,,,,,,,,,,,,,,,,,,,,,,,,,,,,,,,
,,,,,,,,,,,,,,,,,,,,1,5,2021-01-11_13h58.32.437,CL_C2S3,2020.1.3,Win32,60,,,,,h,1,0.56852,0,media/dcnb.png,2,"[-1,1,-1]",3,0,Symb,h,RT,0,0,45,1,3,99,99,h,0.56852,1,5,45,0,45,0,1,,,,,,,,,,,,,,,,,,,,,,,,,,,,,,,,,,
,,,,,,,,,,,,,,,,,,,,1,5,2021-01-11_13h58.32.437,CL_C2S3,2020.1.3,Win32,60,,,,,i,1,0.54016,2,media/dknb.png,1,"[1,-1,-1]",2,0,Symb,i,RT,0,0,46,1,3,99,99,i,0.54016,1,5,46,0,46,0,1,,,,,,,,,,,,,,,,,,,,,,,,,,,,,,,,,,
,,,,,,,,,,,,,,,,,,,,1,5,2021-01-11_13h58.32.437,CL_C2S3,2020.1.3,Win32,60,,,,,h,1,0.479525,1,media/dfnb.png,1,"[1,-1,-1]",1,1,Symb,h,RT,0,0,47,1,3,99,99,h,0.479525,1,5,47,0,47,0,1,,,,,,,,,,,,,,,,,,,,,,,,,,,,,,,,,,
,,,,,,,,,,,,,,,,,,,,1,5,2021-01-11_13h58.32.437,CL_C2S3,2020.1.3,Win32,60,,,,,i,1,1.418865,1,media/dfnb.png,2,"[-1,1,-1]",4,1,Symb,i,RT,0,0,48,1,3,99,99,i,1.418865,1,5,48,0,48,0,1,,,,,,,,,,,,,,,,,,,,,,,,,,,,,,,,,,
,,,,,,,,,,,,,,,,,,,,1,5,2021-01-11_13h58.32.437,CL_C2S3,2020.1.3,Win32,60,,,,,h,1,0.535275,1,media/dfnb.png,1,"[1,-1,-1]",1,1,Symb,h,RT,0,0,49,1,3,99,99,h,0.535275,1,5,49,0,49,0,1,,,,,,,,,,,,,,,,,,,,,,,,,,,,,,,,,,
,,,,,,,,,,,,,,,,,,,,1,5,2021-01-11_13h58.32.437,CL_C2S3,2020.1.3,Win32,60,,,,,u,1,0.533835,2,media/dknb.png,2,"[-1,1,-1]",5,0,Symb,u,RT,0,0,50,1,3,99,99,u,0.533835,1,5,50,0,50,0,1,,,,,,,,,,,,,,,,,,,,,,,,,,,,,,,,,,
,,,,,,,,,,,,,,,,,,,,1,5,2021-01-11_13h58.32.437,CL_C2S3,2020.1.3,Win32,60,,,,,u,1,0.534295,0,media/dcnb.png,1,"[1,-1,-1]",0,0,Symb,u,RT,0,0,51,1,3,99,99,u,0.534295,1,5,51,0,51,0,1,,,,,,,,,,,,,,,,,,,,,,,,,,,,,,,,,,
,,,,,,,,,,,,,,,,,,,,1,5,2021-01-11_13h58.32.437,CL_C2S3,2020.1.3,Win32,60,,,,,u,1,0.41834,0,media/dcnb.png,1,"[1,-1,-1]",0,0,Symb,u,RT,0,0,52,1,3,99,99,u,0.41834,1,5,52,0,52,0,1,,,,,,,,,,,,,,,,,,,,,,,,,,,,,,,,,,
,,,,,,,,,,,,,,,,,,,,1,5,2021-01-11_13h58.32.437,CL_C2S3,2020.1.3,Win32,60,,,,,i,1,0.66358,1,media/dfnb.png,2,"[-1,1,-1]",4,1,Symb,i,RT,0,0,53,1,3,99,99,i,0.66358,1,5,53,0,53,0,1,,,,,,,,,,,,,,,,,,,,,,,,,,,,,,,,,,
,,,,,,,,,,,,,,,,,,,,1,5,2021-01-11_13h58.32.437,CL_C2S3,2020.1.3,Win32,60,,,,,i,1,0.674275,2,media/dknb.png,1,"[1,-1,-1]",2,0,Symb,i,RT,0,0,54,1,3,99,99,i,0.674275,1,5,54,0,54,0,1,,,,,,,,,,,,,,,,,,,,,,,,,,,,,,,,,,
,,,,,,,,,,,,,,,,,,,,1,5,2021-01-11_13h58.32.437,CL_C2S3,2020.1.3,Win32,60,,,,,h,0,0.527635,0,media/dcnb.png,1,"[1,-1,-1]",0,0,Symb,u,RT,0,0,55,1,3,99,99,h,0.527635,0,5,55,0,55,0,1,,,,,,,,,,,,,,,,,,,,,,,,,,,,,,,,,,
,,,,,,,,,,,,,,,,,,,,1,5,2021-01-11_13h58.32.437,CL_C2S3,2020.1.3,Win32,60,,,,,u,1,0.55038,2,media/dknb.png,2,"[-1,1,-1]",5,0,Symb,u,RT,0,0,56,1,3,99,99,u,0.55038,1,5,56,0,56,0,1,,,,,,,,,,,,,,,,,,,,,,,,,,,,,,,,,,
,,,,,,,,,,,,,,,,,,,,1,5,2021-01-11_13h58.32.437,CL_C2S3,2020.1.3,Win32,60,,,,,i,1,0.60077,1,media/dfnb.png,2,"[-1,1,-1]",4,1,Symb,i,RT,0,0,57,1,3,99,99,i,0.60077,1,5,57,0,57,0,1,,,,,,,,,,,,,,,,,,,,,,,,,,,,,,,,,,
,,,,,,,,,,,,,,,,,,,,1,5,2021-01-11_13h58.32.437,CL_C2S3,2020.1.3,Win32,60,,,,,h,1,0.50535,1,media/dfnb.png,1,"[1,-1,-1]",1,1,Symb,h,RT,0,0,58,1,3,99,99,h,0.50535,1,5,58,0,58,0,1,,,,,,,,,,,,,,,,,,,,,,,,,,,,,,,,,,
,,,,,,,,,,,,,,,,,,,,1,5,2021-01-11_13h58.32.437,CL_C2S3,2020.1.3,Win32,60,,,,,h,1,0.46222,0,media/dcnb.png,2,"[-1,1,-1]",3,0,Symb,h,RT,0,0,59,1,3,99,99,h,0.46222,1,5,59,0,59,0,1,,,,,,,,,,,,,,,,,,,,,,,,,,,,,,,,,,
,,,,,,,,,,,,,,,,,,,,1,5,2021-01-11_13h58.32.437,CL_C2S3,2020.1.3,Win32,60,,,,,i,1,0.624805,1,media/dfnb.png,2,"[-1,1,-1]",4,1,Symb,i,RT,0,0,60,1,3,99,99,i,0.624805,1,5,60,0,60,0,1,,,,,,,,,,,,,,,,,,,,,,,,,,,,,,,,,,
,,,,,,,,,,,,,,,,,,,,1,5,2021-01-11_13h58.32.437,CL_C2S3,2020.1.3,Win32,60,,,,,i,1,0.622595,2,media/dknb.png,1,"[1,-1,-1]",2,0,Symb,i,RT,0,0,61,1,3,99,99,i,0.622595,1,5,61,0,61,0,1,,,,,,,,,,,,,,,,,,,,,,,,,,,,,,,,,,
,,,,,,,,,,,,,,,,,,,,1,5,2021-01-11_13h58.32.437,CL_C2S3,2020.1.3,Win32,60,,,,,h,1,0.885985,0,media/dcnb.png,2,"[-1,1,-1]",3,0,Symb,h,RT,0,0,62,1,3,99,99,h,0.885985,1,5,62,0,62,0,1,,,,,,,,,,,,,,,,,,,,,,,,,,,,,,,,,,
,,,,,,,,,,,,,,,,,,,,1,5,2021-01-11_13h58.32.437,CL_C2S3,2020.1.3,Win32,60,,,,,i,1,0.69482,1,media/dfnb.png,2,"[-1,1,-1]",4,1,Symb,i,RT,0,0,63,1,3,99,99,i,0.69482,1,5,63,0,63,0,1,,,,,,,,,,,,,,,,,,,,,,,,,,,,,,,,,,
,,,,,,,,,,,,,,,,,,,,1,5,2021-01-11_13h58.32.437,CL_C2S3,2020.1.3,Win32,60,,,,,h,1,0.71261,0,media/dcnb.png,2,"[-1,1,-1]",3,0,Symb,h,RT,0,0,64,1,3,99,99,h,0.71261,1,5,64,0,64,0,1,,,,,,,,,,,,,,,,,,,,,,,,,,,,,,,,,,
,,,,,,,,,,,,,,,,,,,,1,5,2021-01-11_13h58.32.437,CL_C2S3,2020.1.3,Win32,60,,,,,h,1,0.535855,1,media/dfnb.png,1,"[1,-1,-1]",1,1,Symb,h,RT,0,0,65,1,3,99,99,h,0.535855,1,5,65,0,65,0,1,,,,,,,,,,,,,,,,,,,,,,,,,,,,,,,,,,
,,,,,,,,,,,,,,,,,,,,1,5,2021-01-11_13h58.32.437,CL_C2S3,2020.1.3,Win32,60,,,,,u,1,0.64494,2,media/dknb.png,2,"[-1,1,-1]",5,0,Symb,u,RT,0,0,66,1,3,99,99,u,0.64494,1,5,66,0,66,0,1,,,,,,,,,,,,,,,,,,,,,,,,,,,,,,,,,,
,,,,,,,,,,,,,,,,,,,,1,5,2021-01-11_13h58.32.437,CL_C2S3,2020.1.3,Win32,60,,,,,u,1,0.333575,0,media/dcnb.png,1,"[1,-1,-1]",0,0,Symb,u,RT,0,0,67,1,3,99,99,u,0.333575,1,5,67,0,67,0,1,,,,,,,,,,,,,,,,,,,,,,,,,,,,,,,,,,
,,,,,,,,,,,,,,,,,,,,1,5,2021-01-11_13h58.32.437,CL_C2S3,2020.1.3,Win32,60,,,,,u,1,1.01792,2,media/dknb.png,2,"[-1,1,-1]",5,0,Symb,u,RT,0,0,68,1,3,99,99,u,1.01792,1,5,68,0,68,0,1,,,,,,,,,,,,,,,,,,,,,,,,,,,,,,,,,,
,,,,,,,,,,,,,,,,,,,,1,5,2021-01-11_13h58.32.437,CL_C2S3,2020.1.3,Win32,60,,,,,u,1,0.57749,0,media/dcnb.png,1,"[1,-1,-1]",0,0,Symb,u,RT,0,0,69,1,3,99,99,u,0.57749,1,5,69,0,69,0,1,,,,,,,,,,,,,,,,,,,,,,,,,,,,,,,,,,
,,,,,,,,,,,,,,,,,,,,1,5,2021-01-11_13h58.32.437,CL_C2S3,2020.1.3,Win32,60,,,,,i,1,0.606845,2,media/dknb.png,1,"[1,-1,-1]",2,0,Symb,i,RT,0,0,70,1,3,99,99,i,0.606845,1,5,70,0,70,0,1,,,,,,,,,,,,,,,,,,,,,,,,,,,,,,,,,,
,,,,,,,,,,,,,,,,,,,,1,5,2021-01-11_13h58.32.437,CL_C2S3,2020.1.3,Win32,60,,,,,i,0,0.342925,1,media/dfnb.png,1,"[1,-1,-1]",1,1,Symb,h,RT,0,0,71,1,3,99,99,i,0.342925,0,5,71,0,71,0,1,,,,,,,,,,,,,,,,,,,,,,,,,,,,,,,,,,
,,,,,,,,,,,,,,,,,,,,1,5,2021-01-11_13h58.32.437,CL_C2S3,2020.1.3,Win32,60,,,,,h,0,0.74259,0,media/dcnb.png,1,"[1,-1,-1]",0,0,Symb,u,RT,0,0,72,1,3,99,99,h,0.74259,0,5,72,0,72,0,1,,,,,,,,,,,,,,,,,,,,,,,,,,,,,,,,,,
,,,,,,,,,,,,,,,,,,,,1,5,2021-01-11_13h58.32.437,CL_C2S3,2020.1.3,Win32,60,,,,,h,1,0.908585,1,media/dfnb.png,1,"[1,-1,-1]",1,1,Symb,h,RT,0,0,73,1,3,99,99,h,0.908585,1,5,73,0,73,0,1,,,,,,,,,,,,,,,,,,,,,,,,,,,,,,,,,,
,,,,,,,,,,,,,,,,,,,,1,5,2021-01-11_13h58.32.437,CL_C2S3,2020.1.3,Win32,60,,,,,u,1,0.53342,2,media/dknb.png,2,"[-1,1,-1]",5,0,Symb,u,RT,0,0,74,1,3,99,99,u,0.53342,1,5,74,0,74,0,1,,,,,,,,,,,,,,,,,,,,,,,,,,,,,,,,,,
,,,,,,,,,,,,,,,,,,,,1,5,2021-01-11_13h58.32.437,CL_C2S3,2020.1.3,Win32,60,,,,,i,1,1.75115,2,media/dknb.png,1,"[1,-1,-1]",2,0,Symb,i,RT,0,0,75,1,3,99,99,i,1.75115,1,5,75,0,75,0,1,,,,,,,,,,,,,,,,,,,,,,,,,,,,,,,,,,
,,,,,,,,,,,,,,,,,,,,1,5,2021-01-11_13h58.32.437,CL_C2S3,2020.1.3,Win32,60,,,,,u,1,0.98362,0,media/dcnb.png,1,"[1,-1,-1]",0,0,Symb,u,RT,0,0,76,1,3,99,99,u,0.98362,1,5,76,0,76,0,1,,,,,,,,,,,,,,,,,,,,,,,,,,,,,,,,,,
,,,,,,,,,,,,,,,,,,,,1,5,2021-01-11_13h58.32.437,CL_C2S3,2020.1.3,Win32,60,,,,,h,1,0.585515,0,media/dcnb.png,2,"[-1,1,-1]",3,0,Symb,h,RT,0,0,77,1,3,99,99,h,0.585515,1,5,77,0,77,0,1,,,,,,,,,,,,,,,,,,,,,,,,,,,,,,,,,,
,,,,,,,,,,,,,,,,,,,,1,5,2021-01-11_13h58.32.437,CL_C2S3,2020.1.3,Win32,60,,,,,u,1,0.73332,2,media/dknb.png,2,"[-1,1,-1]",5,0,Symb,u,RT,0,0,78,1,3,99,99,u,0.73332,1,5,78,0,78,0,1,,,,,,,,,,,,,,,,,,,,,,,,,,,,,,,,,,
,,,,,,,,,,,,,,,,,,,,1,5,2021-01-11_13h58.32.437,CL_C2S3,2020.1.3,Win32,60,,,,,i,1,0.9769,1,media/dfnb.png,2,"[-1,1,-1]",4,1,Symb,i,RT,0,0,79,1,3,99,99,i,0.9769,1,5,79,0,79,0,1,,,,,,,,,,,,,,,,,,,,,,,,,,,,,,,,,,
,,,,,,,,,,,,,,,,,,,,1,5,2021-01-11_13h58.32.437,CL_C2S3,2020.1.3,Win32,60,,,,,h,1,0.603235,1,media/dfnb.png,1,"[1,-1,-1]",1,1,Symb,h,RT,0,0,80,1,3,99,99,h,0.603235,1,5,80,0,80,0,1,,,,,,,,,,,,,,,,,,,,,,,,,,,,,,,,,,
,,,,,,,,,,,,,,,,,,,,1,5,2021-01-11_13h58.32.437,CL_C2S3,2020.1.3,Win32,60,,,,,i,1,0.5942,2,media/dknb.png,1,"[1,-1,-1]",2,0,Symb,i,RT,0,0,81,1,3,99,99,i,0.5942,1,5,81,0,81,0,1,,,,,,,,,,,,,,,,,,,,,,,,,,,,,,,,,,
,,,,,,,,,,,,,,,,,,,,1,5,2021-01-11_13h58.32.437,CL_C2S3,2020.1.3,Win32,60,,,,,i,1,0.983735,1,media/dfnb.png,2,"[-1,1,-1]",4,1,Symb,i,RT,0,0,82,1,3,99,99,i,0.983735,1,5,82,0,82,0,1,,,,,,,,,,,,,,,,,,,,,,,,,,,,,,,,,,
,,,,,,,,,,,,,,,,,,,,1,5,2021-01-11_13h58.32.437,CL_C2S3,2020.1.3,Win32,60,,,,,h,1,0.488645,0,media/dcnb.png,2,"[-1,1,-1]",3,0,Symb,h,RT,0,0,83,1,3,99,99,h,0.488645,1,5,83,0,83,0,1,,,,,,,,,,,,,,,,,,,,,,,,,,,,,,,,,,
,,,,,,,,,,,,,,,,,,,,1,5,2021-01-11_13h58.32.437,CL_C2S3,2020.1.3,Win32,60,,,,,h,1,0.529685,1,media/dfnb.png,1,"[1,-1,-1]",1,1,Symb,h,RT,0,0,84,1,3,99,99,h,0.529685,1,5,84,0,84,0,1,,,,,,,,,,,,,,,,,,,,,,,,,,,,,,,,,,
,,,,,,,,,,,,,,,,,,,,1,5,2021-01-11_13h58.32.437,CL_C2S3,2020.1.3,Win32,60,,,,,u,1,0.592715,2,media/dknb.png,2,"[-1,1,-1]",5,0,Symb,u,RT,0,0,85,1,3,99,99,u,0.592715,1,5,85,0,85,0,1,,,,,,,,,,,,,,,,,,,,,,,,,,,,,,,,,,
,,,,,,,,,,,,,,,,,,,,1,5,2021-01-11_13h58.32.437,CL_C2S3,2020.1.3,Win32,60,,,,,i,1,0.53953,2,media/dknb.png,1,"[1,-1,-1]",2,0,Symb,i,RT,0,0,86,1,3,99,99,i,0.53953,1,5,86,0,86,0,1,,,,,,,,,,,,,,,,,,,,,,,,,,,,,,,,,,
,,,,,,,,,,,,,,,,,,,,1,5,2021-01-11_13h58.32.437,CL_C2S3,2020.1.3,Win32,60,,,,,u,1,0.72306,0,media/dcnb.png,1,"[1,-1,-1]",0,0,Symb,u,RT,0,0,87,1,3,99,99,u,0.72306,1,5,87,0,87,0,1,,,,,,,,,,,,,,,,,,,,,,,,,,,,,,,,,,
,,,,,,,,,,,,,,,,,,,,1,5,2021-01-11_13h58.32.437,CL_C2S3,2020.1.3,Win32,60,,,,,h,1,0.89768,0,media/dcnb.png,2,"[-1,1,-1]",3,0,Symb,h,RT,0,0,88,1,3,99,99,h,0.89768,1,5,88,0,88,0,1,,,,,,,,,,,,,,,,,,,,,,,,,,,,,,,,,,
,,,,,,,,,,,,,,,,,,,,1,5,2021-01-11_13h58.32.437,CL_C2S3,2020.1.3,Win32,60,,,,,i,1,0.61602,1,media/dfnb.png,2,"[-1,1,-1]",4,1,Symb,i,RT,0,0,89,1,3,99,99,i,0.61602,1,5,89,0,89,0,1,,,,,,,,,,,,,,,,,,,,,,,,,,,,,,,,,,
,,,,,,,,,,,,,,,,,,,,1,5,2021-01-11_13h58.32.437,CL_C2S3,2020.1.3,Win32,60,,,,,i,1,0.375925,1,media/dfnb.png,2,"[-1,1,-1]",4,1,Symb,i,RT,0,0,90,1,3,99,99,i,0.375925,1,5,90,0,90,0,1,,,,,,,,,,,,,,,,,,,,,,,,,,,,,,,,,,
,,,,,,,,,,,,,,,,,,,,1,5,2021-01-11_13h58.32.437,CL_C2S3,2020.1.3,Win32,60,,,,,i,1,0.529985,2,media/dknb.png,1,"[1,-1,-1]",2,0,Symb,i,RT,0,0,91,1,3,99,99,i,0.529985,1,5,91,0,91,0,1,,,,,,,,,,,,,,,,,,,,,,,,,,,,,,,,,,
,,,,,,,,,,,,,,,,,,,,1,5,2021-01-11_13h58.32.437,CL_C2S3,2020.1.3,Win32,60,,,,,h,1,0.489955,0,media/dcnb.png,2,"[-1,1,-1]",3,0,Symb,h,RT,0,0,92,1,3,99,99,h,0.489955,1,5,92,0,92,0,1,,,,,,,,,,,,,,,,,,,,,,,,,,,,,,,,,,
,,,,,,,,,,,,,,,,,,,,1,5,2021-01-11_13h58.32.437,CL_C2S3,2020.1.3,Win32,60,,,,,h,1,0.50088,1,media/dfnb.png,1,"[1,-1,-1]",1,1,Symb,h,RT,0,0,93,1,3,99,99,h,0.50088,1,5,93,0,93,0,1,,,,,,,,,,,,,,,,,,,,,,,,,,,,,,,,,,
,,,,,,,,,,,,,,,,,,,,1,5,2021-01-11_13h58.32.437,CL_C2S3,2020.1.3,Win32,60,,,,,u,1,0.433645,2,media/dknb.png,2,"[-1,1,-1]",5,0,Symb,u,RT,0,0,94,1,3,99,99,u,0.433645,1,5,94,0,94,0,1,,,,,,,,,,,,,,,,,,,,,,,,,,,,,,,,,,
,,,,,,,,,,,,,,,,,,,,1,5,2021-01-11_13h58.32.437,CL_C2S3,2020.1.3,Win32,60,,,,,h,0,0.517775,1,media/dfnb.png,2,"[-1,1,-1]",4,1,Symb,i,RT,0,0,95,1,3,99,99,h,0.517775,0,5,95,0,95,0,1,,,,,,,,,,,,,,,,,,,,,,,,,,,,,,,,,,
,,,,,,,,,,,,,,,,,,,,1,5,2021-01-11_13h58.32.437,CL_C2S3,2020.1.3,Win32,60,,,,,u,1,0.743505,0,media/dcnb.png,1,"[1,-1,-1]",0,0,Symb,u,RT,0,0,96,1,3,99,99,u,0.743505,1,5,96,0,96,0,1,,,,,,,,,,,,,,,,,,,,,,,,,,,,,,,,,,
,,,,,,,,,,,,,,,,,,,,1,5,2021-01-11_13h58.32.437,CL_C2S3,2020.1.3,Win32,60,,,,,h,1,0.633805,0,media/dcnb.png,2,"[-1,1,-1]",3,0,Symb,h,RT,0,0,97,1,3,99,99,h,0.633805,1,5,97,0,97,0,1,,,,,,,,,,,,,,,,,,,,,,,,,,,,,,,,,,
,,,,,,,,,,,,,,,,,,,,1,5,2021-01-11_13h58.32.437,CL_C2S3,2020.1.3,Win32,60,,,,,i,1,0.55156,2,media/dknb.png,1,"[1,-1,-1]",2,0,Symb,i,RT,0,0,98,1,3,99,99,i,0.55156,1,5,98,0,98,0,1,,,,,,,,,,,,,,,,,,,,,,,,,,,,,,,,,,
,,,,,,,,,,,,,,,,,,,,1,5,2021-01-11_13h58.32.437,CL_C2S3,2020.1.3,Win32,60,,,,,u,1,0.763265,0,media/dcnb.png,1,"[1,-1,-1]",0,0,Symb,u,RT,0,0,99,1,3,99,99,u,0.763265,1,5,99,0,99,0,1,,,,,,,,,,,,,,,,,,,,,,,,,,,,,,,,,,
,,,,,,,,,,,,,,,,,,,,1,5,2021-01-11_13h58.32.437,CL_C2S3,2020.1.3,Win32,60,,,,,u,1,0.517625,2,media/dknb.png,2,"[-1,1,-1]",5,0,Symb,u,RT,0,0,100,1,3,99,99,u,0.517625,1,5,100,0,100,0,1,,,,,,,,,,,,,,,,,,,,,,,,,,,,,,,,,,
,,,,,,,,,,,,,,,,,,,,1,5,2021-01-11_13h58.32.437,CL_C2S3,2020.1.3,Win32,60,,,,,h,1,0.56832,1,media/dfnb.png,1,"[1,-1,-1]",1,1,Symb,h,RT,0,0,101,1,3,99,99,h,0.56832,1,5,101,0,101,0,1,,,,,,,,,,,,,,,,,,,,,,,,,,,,,,,,,,
,,,,,,,,,,,,,,,,,,,,1,5,2021-01-11_13h58.32.437,CL_C2S3,2020.1.3,Win32,60,,,,,u,1,1.548135,0,media/dcnb.png,1,"[1,-1,-1]",0,0,Symb,u,RT,0,0,102,1,3,99,99,u,1.548135,1,5,102,0,102,0,1,,,,,,,,,,,,,,,,,,,,,,,,,,,,,,,,,,
,,,,,,,,,,,,,,,,,,,,1,5,2021-01-11_13h58.32.437,CL_C2S3,2020.1.3,Win32,60,,,,,h,1,0.540365,0,media/dcnb.png,2,"[-1,1,-1]",3,0,Symb,h,RT,0,0,103,1,3,99,99,h,0.540365,1,5,103,0,103,0,1,,,,,,,,,,,,,,,,,,,,,,,,,,,,,,,,,,
,,,,,,,,,,,,,,,,,,,,1,5,2021-01-11_13h58.32.437,CL_C2S3,2020.1.3,Win32,60,,,,,h,1,0.73769,1,media/dfnb.png,1,"[1,-1,-1]",1,1,Symb,h,RT,0,0,104,1,3,99,99,h,0.73769,1,5,104,0,104,0,1,,,,,,,,,,,,,,,,,,,,,,,,,,,,,,,,,,
,,,,,,,,,,,,,,,,,,,,1,5,2021-01-11_13h58.32.437,CL_C2S3,2020.1.3,Win32,60,,,,,u,1,0.505005,2,media/dknb.png,2,"[-1,1,-1]",5,0,Symb,u,RT,0,0,105,1,3,99,99,u,0.505005,1,5,105,0,105,0,1,,,,,,,,,,,,,,,,,,,,,,,,,,,,,,,,,,
,,,,,,,,,,,,,,,,,,,,1,5,2021-01-11_13h58.32.437,CL_C2S3,2020.1.3,Win32,60,,,,,i,1,1.33425,2,media/dknb.png,1,"[1,-1,-1]",2,0,Symb,i,RT,0,0,106,1,3,99,99,i,1.33425,1,5,106,0,106,0,1,,,,,,,,,,,,,,,,,,,,,,,,,,,,,,,,,,
,,,,,,,,,,,,,,,,,,,,1,5,2021-01-11_13h58.32.437,CL_C2S3,2020.1.3,Win32,60,,,,,h,1,0.83009,1,media/dfnb.png,1,"[1,-1,-1]",1,1,Symb,h,RT,0,0,107,1,3,99,99,h,0.83009,1,5,107,0,107,0,1,,,,,,,,,,,,,,,,,,,,,,,,,,,,,,,,,,
,,,,,,,,,,,,,,,,,,,,1,5,2021-01-11_13h58.32.437,CL_C2S3,2020.1.3,Win32,60,,,,,i,1,0.59516,1,media/dfnb.png,2,"[-1,1,-1]",4,1,Symb,i,RT,0,0,108,1,3,99,99,i,0.59516,1,5,108,0,108,0,1,,,,,,,,,,,,,,,,,,,,,,,,,,,,,,,,,,
,,,,,,,,,,,,,,,,,,,,1,5,2021-01-11_13h58.32.437,CL_C2S3,2020.1.3,Win32,60,,,,,u,1,0.55225,2,media/dknb.png,2,"[-1,1,-1]",5,0,Symb,u,RT,0,0,109,1,3,99,99,u,0.55225,1,5,109,0,109,0,1,,,,,,,,,,,,,,,,,,,,,,,,,,,,,,,,,,
,,,,,,,,,,,,,,,,,,,,1,5,2021-01-11_13h58.32.437,CL_C2S3,2020.1.3,Win32,60,,,,,h,1,0.917245,0,media/dcnb.png,2,"[-1,1,-1]",3,0,Symb,h,RT,0,0,110,1,3,99,99,h,0.917245,1,5,110,0,110,0,1,,,,,,,,,,,,,,,,,,,,,,,,,,,,,,,,,,
,,,,,,,,,,,,,,,,,,,,1,5,2021-01-11_13h58.32.437,CL_C2S3,2020.1.3,Win32,60,,,,,i,1,1.217665,2,media/dknb.png,1,"[1,-1,-1]",2,0,Symb,i,RT,0,0,111,1,3,99,99,i,1.217665,1,5,111,0,111,0,1,,,,,,,,,,,,,,,,,,,,,,,,,,,,,,,,,,
,,,,,,,,,,,,,,,,,,,,1,5,2021-01-11_13h58.32.437,CL_C2S3,2020.1.3,Win32,60,,,,,u,1,1.194015,0,media/dcnb.png,1,"[1,-1,-1]",0,0,Symb,u,RT,0,0,112,1,3,99,99,u,1.194015,1,5,112,0,112,0,1,,,,,,,,,,,,,,,,,,,,,,,,,,,,,,,,,,
,,,,,,,,,,,,,,,,,,,,1,5,2021-01-11_13h58.32.437,CL_C2S3,2020.1.3,Win32,60,,,,,i,1,0.628125,1,media/dfnb.png,2,"[-1,1,-1]",4,1,Symb,i,RT,0,0,113,1,3,99,99,i,0.628125,1,5,113,0,113,0,1,,,,,,,,,,,,,,,,,,,,,,,,,,,,,,,,,,
,,,,,,,,,,,,,,,,,,,,1,5,2021-01-11_13h58.32.437,CL_C2S3,2020.1.3,Win32,60,,,,,h,1,1.01498,0,media/dcnb.png,2,"[-1,1,-1]",3,0,Symb,h,RT,0,0,114,1,3,99,99,h,1.01498,1,5,114,0,114,0,1,,,,,,,,,,,,,,,,,,,,,,,,,,,,,,,,,,
,,,,,,,,,,,,,,,,,,,,1,5,2021-01-11_13h58.32.437,CL_C2S3,2020.1.3,Win32,60,,,,,i,1,0.563285,2,media/dknb.png,1,"[1,-1,-1]",2,0,Symb,i,RT,0,0,115,1,3,99,99,i,0.563285,1,5,115,0,115,0,1,,,,,,,,,,,,,,,,,,,,,,,,,,,,,,,,,,
,,,,,,,,,,,,,,,,,,,,1,5,2021-01-11_13h58.32.437,CL_C2S3,2020.1.3,Win32,60,,,,,h,1,0.561005,1,media/dfnb.png,1,"[1,-1,-1]",1,1,Symb,h,RT,0,0,116,1,3,99,99,h,0.561005,1,5,116,0,116,0,1,,,,,,,,,,,,,,,,,,,,,,,,,,,,,,,,,,
,,,,,,,,,,,,,,,,,,,,1,5,2021-01-11_13h58.32.437,CL_C2S3,2020.1.3,Win32,60,,,,,i,1,1.203865,1,media/dfnb.png,2,"[-1,1,-1]",4,1,Symb,i,RT,0,0,117,1,3,99,99,i,1.203865,1,5,117,0,117,0,1,,,,,,,,,,,,,,,,,,,,,,,,,,,,,,,,,,
,,,,,,,,,,,,,,,,,,,,1,5,2021-01-11_13h58.32.437,CL_C2S3,2020.1.3,Win32,60,,,,,u,1,0.72042,2,media/dknb.png,2,"[-1,1,-1]",5,0,Symb,u,RT,0,0,118,1,3,99,99,u,0.72042,1,5,118,0,118,0,1,,,,,,,,,,,,,,,,,,,,,,,,,,,,,,,,,,
,,,,,,,,,,,,,,,,,,,,1,5,2021-01-11_13h58.32.437,CL_C2S3,2020.1.3,Win32,60,,,,,h,0,0.64256,0,media/dcnb.png,1,"[1,-1,-1]",0,0,Symb,u,RT,0,0,119,1,3,99,99,h,0.64256,0,5,119,0,119,0,1,,,,,,,,,,,,,,,,,,,,,,,,,,,,,,,,,,
,,,,,,,,,,,,,,,,,,,,1,5,2021-01-11_13h58.32.437,CL_C2S3,2020.1.3,Win32,60,,,,,,,,,,,,,,,,,,,,,,,,,,,,,,,,,2,0,2,0,1,,,,,,,,,,,,,,,,,,,,,,,,,,,,,
,,,,,,,,,,,,,,,,,,,,1,5,2021-01-11_13h58.32.437,CL_C2S3,2020.1.3,Win32,60,,,h,3.61297,u,1,1.04676,0,media/dcnb.png,1,"[1,-1,-1]",0,0,Symb,u,RT,0,0,0,1,4,99,99,u,1.04676,1,5,0,0,0,0,1,,,,,,,,,,,,,,,,,,,,,,,,,,,,,,,,,,
,,,,,,,,,,,,,,,,,,,,1,5,2021-01-11_13h58.32.437,CL_C2S3,2020.1.3,Win32,60,,,,,h,1,0.589305,0,media/dcnb.png,2,"[-1,1,-1]",3,0,Symb,h,RT,0,0,1,1,4,99,99,h,0.589305,1,5,1,0,1,0,1,,,,,,,,,,,,,,,,,,,,,,,,,,,,,,,,,,
,,,,,,,,,,,,,,,,,,,,1,5,2021-01-11_13h58.32.437,CL_C2S3,2020.1.3,Win32,60,,,,,i,1,0.590475,2,media/dknb.png,1,"[1,-1,-1]",2,0,Symb,i,RT,0,0,2,1,4,99,99,i,0.590475,1,5,2,0,2,0,1,,,,,,,,,,,,,,,,,,,,,,,,,,,,,,,,,,
,,,,,,,,,,,,,,,,,,,,1,5,2021-01-11_13h58.32.437,CL_C2S3,2020.1.3,Win32,60,,,,,u,1,0.58478,0,media/dcnb.png,1,"[1,-1,-1]",0,0,Symb,u,RT,0,0,3,1,4,99,99,u,0.58478,1,5,3,0,3,0,1,,,,,,,,,,,,,,,,,,,,,,,,,,,,,,,,,,
,,,,,,,,,,,,,,,,,,,,1,5,2021-01-11_13h58.32.437,CL_C2S3,2020.1.3,Win32,60,,,,,h,0,0.588105,1,media/dfnb.png,2,"[-1,1,-1]",4,1,Symb,i,RT,0,0,4,1,4,99,99,h,0.588105,0,5,4,0,4,0,1,,,,,,,,,,,,,,,,,,,,,,,,,,,,,,,,,,
,,,,,,,,,,,,,,,,,,,,1,5,2021-01-11_13h58.32.437,CL_C2S3,2020.1.3,Win32,60,,,,,i,1,0.521445,1,media/dfnb.png,2,"[-1,1,-1]",4,1,Symb,i,RT,0,0,5,1,4,99,99,i,0.521445,1,5,5,0,5,0,1,,,,,,,,,,,,,,,,,,,,,,,,,,,,,,,,,,
,,,,,,,,,,,,,,,,,,,,1,5,2021-01-11_13h58.32.437,CL_C2S3,2020.1.3,Win32,60,,,,,u,1,0.516995,2,media/dknb.png,2,"[-1,1,-1]",5,0,Symb,u,RT,0,0,6,1,4,99,99,u,0.516995,1,5,6,0,6,0,1,,,,,,,,,,,,,,,,,,,,,,,,,,,,,,,,,,
,,,,,,,,,,,,,,,,,,,,1,5,2021-01-11_13h58.32.437,CL_C2S3,2020.1.3,Win32,60,,,,,h,1,0.46687,0,media/dcnb.png,2,"[-1,1,-1]",3,0,Symb,h,RT,0,0,7,1,4,99,99,h,0.46687,1,5,7,0,7,0,1,,,,,,,,,,,,,,,,,,,,,,,,,,,,,,,,,,
,,,,,,,,,,,,,,,,,,,,1,5,2021-01-11_13h58.32.437,CL_C2S3,2020.1.3,Win32,60,,,,,i,1,0.495215,2,media/dknb.png,1,"[1,-1,-1]",2,0,Symb,i,RT,0,0,8,1,4,99,99,i,0.495215,1,5,8,0,8,0,1,,,,,,,,,,,,,,,,,,,,,,,,,,,,,,,,,,
,,,,,,,,,,,,,,,,,,,,1,5,2021-01-11_13h58.32.437,CL_C2S3,2020.1.3,Win32,60,,,,,i,0,0.45068,2,media/dknb.png,2,"[-1,1,-1]",5,0,Symb,u,RT,0,0,9,1,4,99,99,i,0.45068,0,5,9,0,9,0,1,,,,,,,,,,,,,,,,,,,,,,,,,,,,,,,,,,
,,,,,,,,,,,,,,,,,,,,1,5,2021-01-11_13h58.32.437,CL_C2S3,2020.1.3,Win32,60,,,,,h,1,1.0332,1,media/dfnb.png,1,"[1,-1,-1]",1,1,Symb,h,RT,0,0,10,1,4,99,99,h,1.0332,1,5,10,0,10,0,1,,,,,,,,,,,,,,,,,,,,,,,,,,,,,,,,,,
,,,,,,,,,,,,,,,,,,,,1,5,2021-01-11_13h58.32.437,CL_C2S3,2020.1.3,Win32,60,,,,,h,1,0.3847,1,media/dfnb.png,1,"[1,-1,-1]",1,1,Symb,h,RT,0,0,11,1,4,99,99,h,0.3847,1,5,11,0,11,0,1,,,,,,,,,,,,,,,,,,,,,,,,,,,,,,,,,,
,,,,,,,,,,,,,,,,,,,,1,5,2021-01-11_13h58.32.437,CL_C2S3,2020.1.3,Win32,60,,,,,h,1,0.349365,1,media/dfnb.png,1,"[1,-1,-1]",1,1,Symb,h,RT,0,0,12,1,4,99,99,h,0.349365,1,5,12,0,12,0,1,,,,,,,,,,,,,,,,,,,,,,,,,,,,,,,,,,
,,,,,,,,,,,,,,,,,,,,1,5,2021-01-11_13h58.32.437,CL_C2S3,2020.1.3,Win32,60,,,,,u,1,0.80057,0,media/dcnb.png,1,"[1,-1,-1]",0,0,Symb,u,RT,0,0,13,1,4,99,99,u,0.80057,1,5,13,0,13,0,1,,,,,,,,,,,,,,,,,,,,,,,,,,,,,,,,,,
,,,,,,,,,,,,,,,,,,,,1,5,2021-01-11_13h58.32.437,CL_C2S3,2020.1.3,Win32,60,,,,,i,1,0.584255,1,media/dfnb.png,2,"[-1,1,-1]",4,1,Symb,i,RT,0,0,14,1,4,99,99,i,0.584255,1,5,14,0,14,0,1,,,,,,,,,,,,,,,,,,,,,,,,,,,,,,,,,,
,,,,,,,,,,,,,,,,,,,,1,5,2021-01-11_13h58.32.437,CL_C2S3,2020.1.3,Win32,60,,,,,u,1,0.83569,2,media/dknb.png,2,"[-1,1,-1]",5,0,Symb,u,RT,0,0,15,1,4,99,99,u,0.83569,1,5,15,0,15,0,1,,,,,,,,,,,,,,,,,,,,,,,,,,,,,,,,,,
,,,,,,,,,,,,,,,,,,,,1,5,2021-01-11_13h58.32.437,CL_C2S3,2020.1.3,Win32,60,,,,,h,0,0.62701,0,media/dcnb.png,1,"[1,-1,-1]",0,0,Symb,u,RT,0,0,16,1,4,99,99,h,0.62701,0,5,16,0,16,0,1,,,,,,,,,,,,,,,,,,,,,,,,,,,,,,,,,,
,,,,,,,,,,,,,,,,,,,,1,5,2021-01-11_13h58.32.437,CL_C2S3,2020.1.3,Win32,60,,,,,h,1,0.85873,1,media/dfnb.png,1,"[1,-1,-1]",1,1,Symb,h,RT,0,0,17,1,4,99,99,h,0.85873,1,5,17,0,17,0,1,,,,,,,,,,,,,,,,,,,,,,,,,,,,,,,,,,
,,,,,,,,,,,,,,,,,,,,1,5,2021-01-11_13h58.32.437,CL_C2S3,2020.1.3,Win32,60,,,,,h,1,1.026755,0,media/dcnb.png,2,"[-1,1,-1]",3,0,Symb,h,RT,0,0,18,1,4,99,99,h,1.026755,1,5,18,0,18,0,1,,,,,,,,,,,,,,,,,,,,,,,,,,,,,,,,,,
,,,,,,,,,,,,,,,,,,,,1,5,2021-01-11_13h58.32.437,CL_C2S3,2020.1.3,Win32,60,,,,,h,1,0.434295,0,media/dcnb.png,2,"[-1,1,-1]",3,0,Symb,h,RT,0,0,19,1,4,99,99,h,0.434295,1,5,19,0,19,0,1,,,,,,,,,,,,,,,,,,,,,,,,,,,,,,,,,,
,,,,,,,,,,,,,,,,,,,,1,5,2021-01-11_13h58.32.437,CL_C2S3,2020.1.3,Win32,60,,,,,i,1,0.644295,2,media/dknb.png,1,"[1,-1,-1]",2,0,Symb,i,RT,0,0,20,1,4,99,99,i,0.644295,1,5,20,0,20,0,1,,,,,,,,,,,,,,,,,,,,,,,,,,,,,,,,,,
,,,,,,,,,,,,,,,,,,,,1,5,2021-01-11_13h58.32.437,CL_C2S3,2020.1.3,Win32,60,,,,,u,1,0.50029,2,media/dknb.png,2,"[-1,1,-1]",5,0,Symb,u,RT,0,0,21,1,4,99,99,u,0.50029,1,5,21,0,21,0,1,,,,,,,,,,,,,,,,,,,,,,,,,,,,,,,,,,
,,,,,,,,,,,,,,,,,,,,1,5,2021-01-11_13h58.32.437,CL_C2S3,2020.1.3,Win32,60,,,,,i,1,0.60112,1,media/dfnb.png,2,"[-1,1,-1]",4,1,Symb,i,RT,0,0,22,1,4,99,99,i,0.60112,1,5,22,0,22,0,1,,,,,,,,,,,,,,,,,,,,,,,,,,,,,,,,,,
,,,,,,,,,,,,,,,,,,,,1,5,2021-01-11_13h58.32.437,CL_C2S3,2020.1.3,Win32,60,,,,,i,1,0.588765,2,media/dknb.png,1,"[1,-1,-1]",2,0,Symb,i,RT,0,0,23,1,4,99,99,i,0.588765,1,5,23,0,23,0,1,,,,,,,,,,,,,,,,,,,,,,,,,,,,,,,,,,
,,,,,,,,,,,,,,,,,,,,1,5,2021-01-11_13h58.32.437,CL_C2S3,2020.1.3,Win32,60,,,,,i,1,0.433515,2,media/dknb.png,1,"[1,-1,-1]",2,0,Symb,i,RT,0,0,24,1,4,99,99,i,0.433515,1,5,24,0,24,0,1,,,,,,,,,,,,,,,,,,,,,,,,,,,,,,,,,,
,,,,,,,,,,,,,,,,,,,,1,5,2021-01-11_13h58.32.437,CL_C2S3,2020.1.3,Win32,60,,,,,h,1,0.700025,0,media/dcnb.png,2,"[-1,1,-1]",3,0,Symb,h,RT,0,0,25,1,4,99,99,h,0.700025,1,5,25,0,25,0,1,,,,,,,,,,,,,,,,,,,,,,,,,,,,,,,,,,
,,,,,,,,,,,,,,,,,,,,1,5,2021-01-11_13h58.32.437,CL_C2S3,2020.1.3,Win32,60,,,,,u,1,0.537545,2,media/dknb.png,2,"[-1,1,-1]",5,0,Symb,u,RT,0,0,26,1,4,99,99,u,0.537545,1,5,26,0,26,0,1,,,,,,,,,,,,,,,,,,,,,,,,,,,,,,,,,,
,,,,,,,,,,,,,,,,,,,,1,5,2021-01-11_13h58.32.437,CL_C2S3,2020.1.3,Win32,60,,,,,u,1,0.383035,0,media/dcnb.png,1,"[1,-1,-1]",0,0,Symb,u,RT,0,0,27,1,4,99,99,u,0.383035,1,5,27,0,27,0,1,,,,,,,,,,,,,,,,,,,,,,,,,,,,,,,,,,
,,,,,,,,,,,,,,,,,,,,1,5,2021-01-11_13h58.32.437,CL_C2S3,2020.1.3,Win32,60,,,,,h,1,0.376575,1,media/dfnb.png,1,"[1,-1,-1]",1,1,Symb,h,RT,0,0,28,1,4,99,99,h,0.376575,1,5,28,0,28,0,1,,,,,,,,,,,,,,,,,,,,,,,,,,,,,,,,,,
,,,,,,,,,,,,,,,,,,,,1,5,2021-01-11_13h58.32.437,CL_C2S3,2020.1.3,Win32,60,,,,,i,1,0.6084,1,media/dfnb.png,2,"[-1,1,-1]",4,1,Symb,i,RT,0,0,29,1,4,99,99,i,0.6084,1,5,29,0,29,0,1,,,,,,,,,,,,,,,,,,,,,,,,,,,,,,,,,,
,,,,,,,,,,,,,,,,,,,,1,5,2021-01-11_13h58.32.437,CL_C2S3,2020.1.3,Win32,60,,,,,u,1,0.540935,2,media/dknb.png,2,"[-1,1,-1]",5,0,Symb,u,RT,0,0,30,1,4,99,99,u,0.540935,1,5,30,0,30,0,1,,,,,,,,,,,,,,,,,,,,,,,,,,,,,,,,,,
,,,,,,,,,,,,,,,,,,,,1,5,2021-01-11_13h58.32.437,CL_C2S3,2020.1.3,Win32,60,,,,,i,1,0.591625,2,media/dknb.png,1,"[1,-1,-1]",2,0,Symb,i,RT,0,0,31,1,4,99,99,i,0.591625,1,5,31,0,31,0,1,,,,,,,,,,,,,,,,,,,,,,,,,,,,,,,,,,
,,,,,,,,,,,,,,,,,,,,1,5,2021-01-11_13h58.32.437,CL_C2S3,2020.1.3,Win32,60,,,,,h,1,0.691505,1,media/dfnb.png,1,"[1,-1,-1]",1,1,Symb,h,RT,0,0,32,1,4,99,99,h,0.691505,1,5,32,0,32,0,1,,,,,,,,,,,,,,,,,,,,,,,,,,,,,,,,,,
,,,,,,,,,,,,,,,,,,,,1,5,2021-01-11_13h58.32.437,CL_C2S3,2020.1.3,Win32,60,,,,,u,1,0.576035,2,media/dknb.png,2,"[-1,1,-1]",5,0,Symb,u,RT,0,0,33,1,4,99,99,u,0.576035,1,5,33,0,33,0,1,,,,,,,,,,,,,,,,,,,,,,,,,,,,,,,,,,
,,,,,,,,,,,,,,,,,,,,1,5,2021-01-11_13h58.32.437,CL_C2S3,2020.1.3,Win32,60,,,,,i,0,0.64173,1,media/dfnb.png,1,"[1,-1,-1]",1,1,Symb,h,RT,0,0,34,1,4,99,99,i,0.64173,0,5,34,0,34,0,1,,,,,,,,,,,,,,,,,,,,,,,,,,,,,,,,,,
,,,,,,,,,,,,,,,,,,,,1,5,2021-01-11_13h58.32.437,CL_C2S3,2020.1.3,Win32,60,,,,,h,1,0.920155,0,media/dcnb.png,2,"[-1,1,-1]",3,0,Symb,h,RT,0,0,35,1,4,99,99,h,0.920155,1,5,35,0,35,0,1,,,,,,,,,,,,,,,,,,,,,,,,,,,,,,,,,,
,,,,,,,,,,,,,,,,,,,,1,5,2021-01-11_13h58.32.437,CL_C2S3,2020.1.3,Win32,60,,,,,i,0,0.52796,0,media/dcnb.png,1,"[1,-1,-1]",0,0,Symb,u,RT,0,0,36,1,4,99,99,i,0.52796,0,5,36,0,36,0,1,,,,,,,,,,,,,,,,,,,,,,,,,,,,,,,,,,
,,,,,,,,,,,,,,,,,,,,1,5,2021-01-11_13h58.32.437,CL_C2S3,2020.1.3,Win32,60,,,,,i,1,1.273295,1,media/dfnb.png,2,"[-1,1,-1]",4,1,Symb,i,RT,0,0,37,1,4,99,99,i,1.273295,1,5,37,0,37,0,1,,,,,,,,,,,,,,,,,,,,,,,,,,,,,,,,,,
,,,,,,,,,,,,,,,,,,,,1,5,2021-01-11_13h58.32.437,CL_C2S3,2020.1.3,Win32,60,,,,,u,1,1.516895,0,media/dcnb.png,1,"[1,-1,-1]",0,0,Symb,u,RT,0,0,38,1,4,99,99,u,1.516895,1,5,38,0,38,0,1,,,,,,,,,,,,,,,,,,,,,,,,,,,,,,,,,,
,,,,,,,,,,,,,,,,,,,,1,5,2021-01-11_13h58.32.437,CL_C2S3,2020.1.3,Win32,60,,,,,i,1,0.74327,2,media/dknb.png,1,"[1,-1,-1]",2,0,Symb,i,RT,0,0,39,1,4,99,99,i,0.74327,1,5,39,0,39,0,1,,,,,,,,,,,,,,,,,,,,,,,,,,,,,,,,,,
,,,,,,,,,,,,,,,,,,,,1,5,2021-01-11_13h58.32.437,CL_C2S3,2020.1.3,Win32,60,,,,,h,1,1.175745,0,media/dcnb.png,2,"[-1,1,-1]",3,0,Symb,h,RT,0,0,40,1,4,99,99,h,1.175745,1,5,40,0,40,0,1,,,,,,,,,,,,,,,,,,,,,,,,,,,,,,,,,,
,,,,,,,,,,,,,,,,,,,,1,5,2021-01-11_13h58.32.437,CL_C2S3,2020.1.3,Win32,60,,,,,i,1,0.76054,1,media/dfnb.png,2,"[-1,1,-1]",4,1,Symb,i,RT,0,0,41,1,4,99,99,i,0.76054,1,5,41,0,41,0,1,,,,,,,,,,,,,,,,,,,,,,,,,,,,,,,,,,
,,,,,,,,,,,,,,,,,,,,1,5,2021-01-11_13h58.32.437,CL_C2S3,2020.1.3,Win32,60,,,,,i,1,0.76694,2,media/dknb.png,1,"[1,-1,-1]",2,0,Symb,i,RT,0,0,42,1,4,99,99,i,0.76694,1,5,42,0,42,0,1,,,,,,,,,,,,,,,,,,,,,,,,,,,,,,,,,,
,,,,,,,,,,,,,,,,,,,,1,5,2021-01-11_13h58.32.437,CL_C2S3,2020.1.3,Win32,60,,,,,h,1,0.726195,0,media/dcnb.png,2,"[-1,1,-1]",3,0,Symb,h,RT,0,0,43,1,4,99,99,h,0.726195,1,5,43,0,43,0,1,,,,,,,,,,,,,,,,,,,,,,,,,,,,,,,,,,
,,,,,,,,,,,,,,,,,,,,1,5,2021-01-11_13h58.32.437,CL_C2S3,2020.1.3,Win32,60,,,,,i,1,0.58401,2,media/dknb.png,1,"[1,-1,-1]",2,0,Symb,i,RT,0,0,44,1,4,99,99,i,0.58401,1,5,44,0,44,0,1,,,,,,,,,,,,,,,,,,,,,,,,,,,,,,,,,,
,,,,,,,,,,,,,,,,,,,,1,5,2021-01-11_13h58.32.437,CL_C2S3,2020.1.3,Win32,60,,,,,u,1,0.88574,0,media/dcnb.png,1,"[1,-1,-1]",0,0,Symb,u,RT,0,0,45,1,4,99,99,u,0.88574,1,5,45,0,45,0,1,,,,,,,,,,,,,,,,,,,,,,,,,,,,,,,,,,
,,,,,,,,,,,,,,,,,,,,1,5,2021-01-11_13h58.32.437,CL_C2S3,2020.1.3,Win32,60,,,,,h,1,0.75662,1,media/dfnb.png,1,"[1,-1,-1]",1,1,Symb,h,RT,0,0,46,1,4,99,99,h,0.75662,1,5,46,0,46,0,1,,,,,,,,,,,,,,,,,,,,,,,,,,,,,,,,,,
,,,,,,,,,,,,,,,,,,,,1,5,2021-01-11_13h58.32.437,CL_C2S3,2020.1.3,Win32,60,,,,,u,1,0.674865,0,media/dcnb.png,1,"[1,-1,-1]",0,0,Symb,u,RT,0,0,47,1,4,99,99,u,0.674865,1,5,47,0,47,0,1,,,,,,,,,,,,,,,,,,,,,,,,,,,,,,,,,,
,,,,,,,,,,,,,,,,,,,,1,5,2021-01-11_13h58.32.437,CL_C2S3,2020.1.3,Win32,60,,,,,u,1,0.57277,2,media/dknb.png,2,"[-1,1,-1]",5,0,Symb,u,RT,0,0,48,1,4,99,99,u,0.57277,1,5,48,0,48,0,1,,,,,,,,,,,,,,,,,,,,,,,,,,,,,,,,,,
,,,,,,,,,,,,,,,,,,,,1,5,2021-01-11_13h58.32.437,CL_C2S3,2020.1.3,Win32,60,,,,,h,1,0.817495,0,media/dcnb.png,2,"[-1,1,-1]",3,0,Symb,h,RT,0,0,49,1,4,99,99,h,0.817495,1,5,49,0,49,0,1,,,,,,,,,,,,,,,,,,,,,,,,,,,,,,,,,,
,,,,,,,,,,,,,,,,,,,,1,5,2021-01-11_13h58.32.437,CL_C2S3,2020.1.3,Win32,60,,,,,i,1,0.6337,1,media/dfnb.png,2,"[-1,1,-1]",4,1,Symb,i,RT,0,0,50,1,4,99,99,i,0.6337,1,5,50,0,50,0,1,,,,,,,,,,,,,,,,,,,,,,,,,,,,,,,,,,
,,,,,,,,,,,,,,,,,,,,1,5,2021-01-11_13h58.32.437,CL_C2S3,2020.1.3,Win32,60,,,,,i,1,0.407915,1,media/dfnb.png,2,"[-1,1,-1]",4,1,Symb,i,RT,0,0,51,1,4,99,99,i,0.407915,1,5,51,0,51,0,1,,,,,,,,,,,,,,,,,,,,,,,,,,,,,,,,,,
,,,,,,,,,,,,,,,,,,,,1,5,2021-01-11_13h58.32.437,CL_C2S3,2020.1.3,Win32,60,,,,,u,1,0.71778,2,media/dknb.png,2,"[-1,1,-1]",5,0,Symb,u,RT,0,0,52,1,4,99,99,u,0.71778,1,5,52,0,52,0,1,,,,,,,,,,,,,,,,,,,,,,,,,,,,,,,,,,
,,,,,,,,,,,,,,,,,,,,1,5,2021-01-11_13h58.32.437,CL_C2S3,2020.1.3,Win32,60,,,,,h,1,0.528995,1,media/dfnb.png,1,"[1,-1,-1]",1,1,Symb,h,RT,0,0,53,1,4,99,99,h,0.528995,1,5,53,0,53,0,1,,,,,,,,,,,,,,,,,,,,,,,,,,,,,,,,,,
,,,,,,,,,,,,,,,,,,,,1,5,2021-01-11_13h58.32.437,CL_C2S3,2020.1.3,Win32,60,,,,,h,1,1.010355,0,media/dcnb.png,2,"[-1,1,-1]",3,0,Symb,h,RT,0,0,54,1,4,99,99,h,1.010355,1,5,54,0,54,0,1,,,,,,,,,,,,,,,,,,,,,,,,,,,,,,,,,,
,,,,,,,,,,,,,,,,,,,,1,5,2021-01-11_13h58.32.437,CL_C2S3,2020.1.3,Win32,60,,,,,h,1,1.1912,1,media/dfnb.png,1,"[1,-1,-1]",1,1,Symb,h,RT,0,0,55,1,4,99,99,h,1.1912,1,5,55,0,55,0,1,,,,,,,,,,,,,,,,,,,,,,,,,,,,,,,,,,
,,,,,,,,,,,,,,,,,,,,1,5,2021-01-11_13h58.32.437,CL_C2S3,2020.1.3,Win32,60,,,,,i,1,0.73644,2,media/dknb.png,1,"[1,-1,-1]",2,0,Symb,i,RT,0,0,56,1,4,99,99,i,0.73644,1,5,56,0,56,0,1,,,,,,,,,,,,,,,,,,,,,,,,,,,,,,,,,,
,,,,,,,,,,,,,,,,,,,,1,5,2021-01-11_13h58.32.437,CL_C2S3,2020.1.3,Win32,60,,,,,h,0,1.32119,1,media/dfnb.png,2,"[-1,1,-1]",4,1,Symb,i,RT,0,0,57,1,4,99,99,h,1.32119,0,5,57,0,57,0,1,,,,,,,,,,,,,,,,,,,,,,,,,,,,,,,,,,
,,,,,,,,,,,,,,,,,,,,1,5,2021-01-11_13h58.32.437,CL_C2S3,2020.1.3,Win32,60,,,,,u,1,0.555735,0,media/dcnb.png,1,"[1,-1,-1]",0,0,Symb,u,RT,0,0,58,1,4,99,99,u,0.555735,1,5,58,0,58,0,1,,,,,,,,,,,,,,,,,,,,,,,,,,,,,,,,,,
,,,,,,,,,,,,,,,,,,,,1,5,2021-01-11_13h58.32.437,CL_C2S3,2020.1.3,Win32,60,,,,,u,1,0.5626,2,media/dknb.png,2,"[-1,1,-1]",5,0,Symb,u,RT,0,0,59,1,4,99,99,u,0.5626,1,5,59,0,59,0,1,,,,,,,,,,,,,,,,,,,,,,,,,,,,,,,,,,
,,,,,,,,,,,,,,,,,,,,1,5,2021-01-11_13h58.32.437,CL_C2S3,2020.1.3,Win32,60,,,,,i,1,0.902615,2,media/dknb.png,1,"[1,-1,-1]",2,0,Symb,i,RT,0,0,60,1,4,99,99,i,0.902615,1,5,60,0,60,0,1,,,,,,,,,,,,,,,,,,,,,,,,,,,,,,,,,,
,,,,,,,,,,,,,,,,,,,,1,5,2021-01-11_13h58.32.437,CL_C2S3,2020.1.3,Win32,60,,,,,u,1,1.017495,2,media/dknb.png,2,"[-1,1,-1]",5,0,Symb,u,RT,0,0,61,1,4,99,99,u,1.017495,1,5,61,0,61,0,1,,,,,,,,,,,,,,,,,,,,,,,,,,,,,,,,,,
,,,,,,,,,,,,,,,,,,,,1,5,2021-01-11_13h58.32.437,CL_C2S3,2020.1.3,Win32,60,,,,,i,1,0.933625,1,media/dfnb.png,2,"[-1,1,-1]",4,1,Symb,i,RT,0,0,62,1,4,99,99,i,0.933625,1,5,62,0,62,0,1,,,,,,,,,,,,,,,,,,,,,,,,,,,,,,,,,,
,,,,,,,,,,,,,,,,,,,,1,5,2021-01-11_13h58.32.437,CL_C2S3,2020.1.3,Win32,60,,,,,i,1,0.68812,2,media/dknb.png,1,"[1,-1,-1]",2,0,Symb,i,RT,0,0,63,1,4,99,99,i,0.68812,1,5,63,0,63,0,1,,,,,,,,,,,,,,,,,,,,,,,,,,,,,,,,,,
,,,,,,,,,,,,,,,,,,,,1,5,2021-01-11_13h58.32.437,CL_C2S3,2020.1.3,Win32,60,,,,,h,1,0.517635,0,media/dcnb.png,2,"[-1,1,-1]",3,0,Symb,h,RT,0,0,64,1,4,99,99,h,0.517635,1,5,64,0,64,0,1,,,,,,,,,,,,,,,,,,,,,,,,,,,,,,,,,,
,,,,,,,,,,,,,,,,,,,,1,5,2021-01-11_13h58.32.437,CL_C2S3,2020.1.3,Win32,60,,,,,u,1,0.785285,2,media/dknb.png,2,"[-1,1,-1]",5,0,Symb,u,RT,0,0,65,1,4,99,99,u,0.785285,1,5,65,0,65,0,1,,,,,,,,,,,,,,,,,,,,,,,,,,,,,,,,,,
,,,,,,,,,,,,,,,,,,,,1,5,2021-01-11_13h58.32.437,CL_C2S3,2020.1.3,Win32,60,,,,,h,0,0.742555,0,media/dcnb.png,1,"[1,-1,-1]",0,0,Symb,u,RT,0,0,66,1,4,99,99,h,0.742555,0,5,66,0,66,0,1,,,,,,,,,,,,,,,,,,,,,,,,,,,,,,,,,,
,,,,,,,,,,,,,,,,,,,,1,5,2021-01-11_13h58.32.437,CL_C2S3,2020.1.3,Win32,60,,,,,h,1,0.85973,0,media/dcnb.png,2,"[-1,1,-1]",3,0,Symb,h,RT,0,0,67,1,4,99,99,h,0.85973,1,5,67,0,67,0,1,,,,,,,,,,,,,,,,,,,,,,,,,,,,,,,,,,
,,,,,,,,,,,,,,,,,,,,1,5,2021-01-11_13h58.32.437,CL_C2S3,2020.1.3,Win32,60,,,,,u,1,0.700165,0,media/dcnb.png,1,"[1,-1,-1]",0,0,Symb,u,RT,0,0,68,1,4,99,99,u,0.700165,1,5,68,0,68,0,1,,,,,,,,,,,,,,,,,,,,,,,,,,,,,,,,,,
,,,,,,,,,,,,,,,,,,,,1,5,2021-01-11_13h58.32.437,CL_C2S3,2020.1.3,Win32,60,,,,,h,1,1.23712,1,media/dfnb.png,1,"[1,-1,-1]",1,1,Symb,h,RT,0,0,69,1,4,99,99,h,1.23712,1,5,69,0,69,0,1,,,,,,,,,,,,,,,,,,,,,,,,,,,,,,,,,,
,,,,,,,,,,,,,,,,,,,,1,5,2021-01-11_13h58.32.437,CL_C2S3,2020.1.3,Win32,60,,,,,h,1,2.31042,1,media/dfnb.png,1,"[1,-1,-1]",1,1,Symb,h,RT,0,0,70,1,4,99,99,h,2.31042,1,5,70,0,70,0,1,,,,,,,,,,,,,,,,,,,,,,,,,,,,,,,,,,
,,,,,,,,,,,,,,,,,,,,1,5,2021-01-11_13h58.32.437,CL_C2S3,2020.1.3,Win32,60,,,,,i,1,0.78514,1,media/dfnb.png,2,"[-1,1,-1]",4,1,Symb,i,RT,0,0,71,1,4,99,99,i,0.78514,1,5,71,0,71,0,1,,,,,,,,,,,,,,,,,,,,,,,,,,,,,,,,,,
,,,,,,,,,,,,,,,,,,,,1,5,2021-01-11_13h58.32.437,CL_C2S3,2020.1.3,Win32,60,,,,,u,0,1.802965,2,media/dknb.png,1,"[1,-1,-1]",2,0,Symb,i,RT,0,0,72,1,4,99,99,u,1.802965,0,5,72,0,72,0,1,,,,,,,,,,,,,,,,,,,,,,,,,,,,,,,,,,
,,,,,,,,,,,,,,,,,,,,1,5,2021-01-11_13h58.32.437,CL_C2S3,2020.1.3,Win32,60,,,,,u,1,0.38415,2,media/dknb.png,2,"[-1,1,-1]",5,0,Symb,u,RT,0,0,73,1,4,99,99,u,0.38415,1,5,73,0,73,0,1,,,,,,,,,,,,,,,,,,,,,,,,,,,,,,,,,,
,,,,,,,,,,,,,,,,,,,,1,5,2021-01-11_13h58.32.437,CL_C2S3,2020.1.3,Win32,60,,,,,i,1,0.68431,1,media/dfnb.png,2,"[-1,1,-1]",4,1,Symb,i,RT,0,0,74,1,4,99,99,i,0.68431,1,5,74,0,74,0,1,,,,,,,,,,,,,,,,,,,,,,,,,,,,,,,,,,
,,,,,,,,,,,,,,,,,,,,1,5,2021-01-11_13h58.32.437,CL_C2S3,2020.1.3,Win32,60,,,,,h,1,0.577245,1,media/dfnb.png,1,"[1,-1,-1]",1,1,Symb,h,RT,0,0,75,1,4,99,99,h,0.577245,1,5,75,0,75,0,1,,,,,,,,,,,,,,,,,,,,,,,,,,,,,,,,,,
,,,,,,,,,,,,,,,,,,,,1,5,2021-01-11_13h58.32.437,CL_C2S3,2020.1.3,Win32,60,,,,,u,1,0.700295,0,media/dcnb.png,1,"[1,-1,-1]",0,0,Symb,u,RT,0,0,76,1,4,99,99,u,0.700295,1,5,76,0,76,0,1,,,,,,,,,,,,,,,,,,,,,,,,,,,,,,,,,,
,,,,,,,,,,,,,,,,,,,,1,5,2021-01-11_13h58.32.437,CL_C2S3,2020.1.3,Win32,60,,,,,h,1,0.641005,0,media/dcnb.png,2,"[-1,1,-1]",3,0,Symb,h,RT,0,0,77,1,4,99,99,h,0.641005,1,5,77,0,77,0,1,,,,,,,,,,,,,,,,,,,,,,,,,,,,,,,,,,
,,,,,,,,,,,,,,,,,,,,1,5,2021-01-11_13h58.32.437,CL_C2S3,2020.1.3,Win32,60,,,,,h,1,0.372335,0,media/dcnb.png,2,"[-1,1,-1]",3,0,Symb,h,RT,0,0,78,1,4,99,99,h,0.372335,1,5,78,0,78,0,1,,,,,,,,,,,,,,,,,,,,,,,,,,,,,,,,,,
,,,,,,,,,,,,,,,,,,,,1,5,2021-01-11_13h58.32.437,CL_C2S3,2020.1.3,Win32,60,,,,,i,1,0.585375,2,media/dknb.png,1,"[1,-1,-1]",2,0,Symb,i,RT,0,0,79,1,4,99,99,i,0.585375,1,5,79,0,79,0,1,,,,,,,,,,,,,,,,,,,,,,,,,,,,,,,,,,
,,,,,,,,,,,,,,,,,,,,1,5,2021-01-11_13h58.32.437,CL_C2S3,2020.1.3,Win32,60,,,,,i,0,0.34621,2,media/dknb.png,2,"[-1,1,-1]",5,0,Symb,u,RT,0,0,80,1,4,99,99,i,0.34621,0,5,80,0,80,0,1,,,,,,,,,,,,,,,,,,,,,,,,,,,,,,,,,,
,,,,,,,,,,,,,,,,,,,,1,5,2021-01-11_13h58.32.437,CL_C2S3,2020.1.3,Win32,60,,,,,h,1,0.79544,1,media/dfnb.png,1,"[1,-1,-1]",1,1,Symb,h,RT,0,0,81,1,4,99,99,h,0.79544,1,5,81,0,81,0,1,,,,,,,,,,,,,,,,,,,,,,,,,,,,,,,,,,
,,,,,,,,,,,,,,,,,,,,1,5,2021-01-11_13h58.32.437,CL_C2S3,2020.1.3,Win32,60,,,,,i,1,0.5946,1,media/dfnb.png,2,"[-1,1,-1]",4,1,Symb,i,RT,0,0,82,1,4,99,99,i,0.5946,1,5,82,0,82,0,1,,,,,,,,,,,,,,,,,,,,,,,,,,,,,,,,,,
,,,,,,,,,,,,,,,,,,,,1,5,2021-01-11_13h58.32.437,CL_C2S3,2020.1.3,Win32,60,,,,,h,0,0.8529,0,media/dcnb.png,1,"[1,-1,-1]",0,0,Symb,u,RT,0,0,83,1,4,99,99,h,0.8529,0,5,83,0,83,0,1,,,,,,,,,,,,,,,,,,,,,,,,,,,,,,,,,,
,,,,,,,,,,,,,,,,,,,,1,5,2021-01-11_13h58.32.437,CL_C2S3,2020.1.3,Win32,60,,,,,h,1,0.89327,1,media/dfnb.png,1,"[1,-1,-1]",1,1,Symb,h,RT,0,0,84,1,4,99,99,h,0.89327,1,5,84,0,84,0,1,,,,,,,,,,,,,,,,,,,,,,,,,,,,,,,,,,
,,,,,,,,,,,,,,,,,,,,1,5,2021-01-11_13h58.32.437,CL_C2S3,2020.1.3,Win32,60,,,,,u,1,1.555805,0,media/dcnb.png,1,"[1,-1,-1]",0,0,Symb,u,RT,0,0,85,1,4,99,99,u,1.555805,1,5,85,0,85,0,1,,,,,,,,,,,,,,,,,,,,,,,,,,,,,,,,,,
,,,,,,,,,,,,,,,,,,,,1,5,2021-01-11_13h58.32.437,CL_C2S3,2020.1.3,Win32,60,,,,,u,1,0.59116,2,media/dknb.png,2,"[-1,1,-1]",5,0,Symb,u,RT,0,0,86,1,4,99,99,u,0.59116,1,5,86,0,86,0,1,,,,,,,,,,,,,,,,,,,,,,,,,,,,,,,,,,
,,,,,,,,,,,,,,,,,,,,1,5,2021-01-11_13h58.32.437,CL_C2S3,2020.1.3,Win32,60,,,,,h,1,2.234185,0,media/dcnb.png,2,"[-1,1,-1]",3,0,Symb,h,RT,0,0,87,1,4,99,99,h,2.234185,1,5,87,0,87,0,1,,,,,,,,,,,,,,,,,,,,,,,,,,,,,,,,,,
,,,,,,,,,,,,,,,,,,,,1,5,2021-01-11_13h58.32.437,CL_C2S3,2020.1.3,Win32,60,,,,,i,1,0.85059,1,media/dfnb.png,2,"[-1,1,-1]",4,1,Symb,i,RT,0,0,88,1,4,99,99,i,0.85059,1,5,88,0,88,0,1,,,,,,,,,,,,,,,,,,,,,,,,,,,,,,,,,,
,,,,,,,,,,,,,,,,,,,,1,5,2021-01-11_13h58.32.437,CL_C2S3,2020.1.3,Win32,60,,,,,i,1,0.694965,2,media/dknb.png,1,"[1,-1,-1]",2,0,Symb,i,RT,0,0,89,1,4,99,99,i,0.694965,1,5,89,0,89,0,1,,,,,,,,,,,,,,,,,,,,,,,,,,,,,,,,,,
,,,,,,,,,,,,,,,,,,,,1,5,2021-01-11_13h58.32.437,CL_C2S3,2020.1.3,Win32,60,,,,,u,0,0.696295,1,media/dfnb.png,1,"[1,-1,-1]",1,1,Symb,h,RT,0,0,90,1,4,99,99,u,0.696295,0,5,90,0,90,0,1,,,,,,,,,,,,,,,,,,,,,,,,,,,,,,,,,,
,,,,,,,,,,,,,,,,,,,,1,5,2021-01-11_13h58.32.437,CL_C2S3,2020.1.3,Win32,60,,,,,u,1,0.83636,2,media/dknb.png,2,"[-1,1,-1]",5,0,Symb,u,RT,0,0,91,1,4,99,99,u,0.83636,1,5,91,0,91,0,1,,,,,,,,,,,,,,,,,,,,,,,,,,,,,,,,,,
,,,,,,,,,,,,,,,,,,,,1,5,2021-01-11_13h58.32.437,CL_C2S3,2020.1.3,Win32,60,,,,,h,1,1.35378,0,media/dcnb.png,2,"[-1,1,-1]",3,0,Symb,h,RT,0,0,92,1,4,99,99,h,1.35378,1,5,92,0,92,0,1,,,,,,,,,,,,,,,,,,,,,,,,,,,,,,,,,,
,,,,,,,,,,,,,,,,,,,,1,5,2021-01-11_13h58.32.437,CL_C2S3,2020.1.3,Win32,60,,,,,i,0,2.01757,0,media/dcnb.png,1,"[1,-1,-1]",0,0,Symb,u,RT,0,0,93,1,4,99,99,i,2.01757,0,5,93,0,93,0,1,,,,,,,,,,,,,,,,,,,,,,,,,,,,,,,,,,
,,,,,,,,,,,,,,,,,,,,1,5,2021-01-11_13h58.32.437,CL_C2S3,2020.1.3,Win32,60,,,,,i,1,2.35775,1,media/dfnb.png,2,"[-1,1,-1]",4,1,Symb,i,RT,0,0,94,1,4,99,99,i,2.35775,1,5,94,0,94,0,1,,,,,,,,,,,,,,,,,,,,,,,,,,,,,,,,,,
,,,,,,,,,,,,,,,,,,,,1,5,2021-01-11_13h58.32.437,CL_C2S3,2020.1.3,Win32,60,,,,,u,1,0.50131,2,media/dknb.png,2,"[-1,1,-1]",5,0,Symb,u,RT,0,0,95,1,4,99,99,u,0.50131,1,5,95,0,95,0,1,,,,,,,,,,,,,,,,,,,,,,,,,,,,,,,,,,
