Ctx_Color_List,stim_key_map_ctx1,stim_key_map_ctx2,stim_key_remap_ctx1,stim_key_remap_ctx2,Import_File.thisRepN,Import_File.thisTrialN,Import_File.thisN,Import_File.thisIndex,Import_File.ran,Stim,Ctx_Color,Key,KeyNum,imStim,X_Pos,Y_Pos,Hand,Check,Cross,participant,session,date,expName,psychopyVersion,OS,frameRate,Instr_RT_Old_Press.keys,Instr_RT_Old_Press.rt,Instr_Block_Num_Press.keys,Instr_Block_Num_Press.rt,RT_Press.keys,RT_Press.corr,RT_Press.rt,Symbol,Shape,Ctx,Color,Stim_Num,Key_Num,Stim_Type,True_Key,Block_Type,Remap,Repeat_Count,Trial_Count,Grp,Block_Num,Prep_Time,Ctx_Prep_Time,Actual_Press,RT,Correct,Session,RT_Old_Iter.thisRepN,RT_Old_Iter.thisTrialN,RT_Old_Iter.thisN,RT_Old_Iter.thisIndex,RT_Old_Iter.ran,RT_Old_Block.thisRepN,RT_Old_Block.thisTrialN,RT_Old_Block.thisN,RT_Old_Block.thisIndex,RT_Old_Block.ran
"[[1,-1,-1],[-1,1,-1]]","[1,0,2]","[0,2,1]","[0,2,1]","[1,0,2]",0,0,0,0,1,0,"[1, -1, -1]",h,0,media/dcnb.png,-0.038,0.075,media/hand.png,media/check.png,media/cross.png,1,2,2021-01-05_15h18.54.464,CL_C2S3,2020.1.3,Win32,60,,,,,,,,,,,,,,,,,,,,,,,,,,,,,,,,,,,,,
"[[1,-1,-1],[-1,1,-1],[1,-1,-1],[-1,1,-1]]","[1,0,2]","[0,2,1]","[0,2,1]","[1,0,2]",0,1,1,1,1,1,"[-1, 1, -1]",u,1,media/dfnb.png,0.014,0.1,,,,1,2,2021-01-05_15h18.54.464,CL_C2S3,2020.1.3,Win32,60,,,,,,,,,,,,,,,,,,,,,,,,,,,,,,,,,,,,,
"[[1,-1,-1],[-1,1,-1],[1,-1,-1],[-1,1,-1],[1,-1,-1],[-1,1,-1]]","[1,0,2]","[0,2,1]","[0,2,1]","[1,0,2]",0,2,2,2,1,2,,i,0,media/dknb.png,0.057,0.08,,,,1,2,2021-01-05_15h18.54.464,CL_C2S3,2020.1.3,Win32,60,,,,,,,,,,,,,,,,,,,,,,,,,,,,,,,,,,,,,
,,,,,,,,,,,,,,,,,,,,1,2,2021-01-05_15h18.54.464,CL_C2S3,2020.1.3,Win32,60,h,14.99292,h,1.350635,i,1,2.26041,1,media/dfnb.png,2,"[-1,1,-1]",4,1,Symb,i,RT,0,0,0,1,1,99,99,i,2.26041,1,2,0,0,0,0,1,,,,,
,,,,,,,,,,,,,,,,,,,,1,2,2021-01-05_15h18.54.464,CL_C2S3,2020.1.3,Win32,60,,,,,i,1,0.4531,1,media/dfnb.png,2,"[-1,1,-1]",4,1,Symb,i,RT,0,0,1,1,1,99,99,i,0.4531,1,2,1,0,1,0,1,,,,,
,,,,,,,,,,,,,,,,,,,,1,2,2021-01-05_15h18.54.464,CL_C2S3,2020.1.3,Win32,60,,,,,i,1,0.365845,2,media/dknb.png,1,"[1,-1,-1]",2,0,Symb,i,RT,0,0,2,1,1,99,99,i,0.365845,1,2,2,0,2,0,1,,,,,
,,,,,,,,,,,,,,,,,,,,1,2,2021-01-05_15h18.54.464,CL_C2S3,2020.1.3,Win32,60,,,,,u,1,0.642955,0,media/dcnb.png,1,"[1,-1,-1]",0,0,Symb,u,RT,0,0,3,1,1,99,99,u,0.642955,1,2,3,0,3,0,1,,,,,
,,,,,,,,,,,,,,,,,,,,1,2,2021-01-05_15h18.54.464,CL_C2S3,2020.1.3,Win32,60,,,,,u,1,0.755045,0,media/dcnb.png,1,"[1,-1,-1]",0,0,Symb,u,RT,0,0,4,1,1,99,99,u,0.755045,1,2,4,0,4,0,1,,,,,
,,,,,,,,,,,,,,,,,,,,1,2,2021-01-05_15h18.54.464,CL_C2S3,2020.1.3,Win32,60,,,,,h,1,0.609445,0,media/dcnb.png,2,"[-1,1,-1]",3,0,Symb,h,RT,0,0,5,1,1,99,99,h,0.609445,1,2,5,0,5,0,1,,,,,
,,,,,,,,,,,,,,,,,,,,1,2,2021-01-05_15h18.54.464,CL_C2S3,2020.1.3,Win32,60,,,,,h,1,0.584885,1,media/dfnb.png,1,"[1,-1,-1]",1,1,Symb,h,RT,0,0,6,1,1,99,99,h,0.584885,1,2,6,0,6,0,1,,,,,
,,,,,,,,,,,,,,,,,,,,1,2,2021-01-05_15h18.54.464,CL_C2S3,2020.1.3,Win32,60,,,,,u,1,0.69744,2,media/dknb.png,2,"[-1,1,-1]",5,0,Symb,u,RT,0,0,7,1,1,99,99,u,0.69744,1,2,7,0,7,0,1,,,,,
,,,,,,,,,,,,,,,,,,,,1,2,2021-01-05_15h18.54.464,CL_C2S3,2020.1.3,Win32,60,,,,,h,1,0.759005,0,media/dcnb.png,2,"[-1,1,-1]",3,0,Symb,h,RT,0,0,8,1,1,99,99,h,0.759005,1,2,8,0,8,0,1,,,,,
,,,,,,,,,,,,,,,,,,,,1,2,2021-01-05_15h18.54.464,CL_C2S3,2020.1.3,Win32,60,,,,,i,1,0.802725,2,media/dknb.png,1,"[1,-1,-1]",2,0,Symb,i,RT,0,0,9,1,1,99,99,i,0.802725,1,2,9,0,9,0,1,,,,,
,,,,,,,,,,,,,,,,,,,,1,2,2021-01-05_15h18.54.464,CL_C2S3,2020.1.3,Win32,60,,,,,u,1,0.7289,2,media/dknb.png,2,"[-1,1,-1]",5,0,Symb,u,RT,0,0,10,1,1,99,99,u,0.7289,1,2,10,0,10,0,1,,,,,
,,,,,,,,,,,,,,,,,,,,1,2,2021-01-05_15h18.54.464,CL_C2S3,2020.1.3,Win32,60,,,,,h,1,0.93193,1,media/dfnb.png,1,"[1,-1,-1]",1,1,Symb,h,RT,0,0,11,1,1,99,99,h,0.93193,1,2,11,0,11,0,1,,,,,
,,,,,,,,,,,,,,,,,,,,1,2,2021-01-05_15h18.54.464,CL_C2S3,2020.1.3,Win32,60,,,,,h,1,0.44471,1,media/dfnb.png,1,"[1,-1,-1]",1,1,Symb,h,RT,0,0,12,1,1,99,99,h,0.44471,1,2,12,0,12,0,1,,,,,
,,,,,,,,,,,,,,,,,,,,1,2,2021-01-05_15h18.54.464,CL_C2S3,2020.1.3,Win32,60,,,,,h,1,0.93621,0,media/dcnb.png,2,"[-1,1,-1]",3,0,Symb,h,RT,0,0,13,1,1,99,99,h,0.93621,1,2,13,0,13,0,1,,,,,
,,,,,,,,,,,,,,,,,,,,1,2,2021-01-05_15h18.54.464,CL_C2S3,2020.1.3,Win32,60,,,,,u,1,0.883365,2,media/dknb.png,2,"[-1,1,-1]",5,0,Symb,u,RT,0,0,14,1,1,99,99,u,0.883365,1,2,14,0,14,0,1,,,,,
,,,,,,,,,,,,,,,,,,,,1,2,2021-01-05_15h18.54.464,CL_C2S3,2020.1.3,Win32,60,,,,,u,1,0.45812,2,media/dknb.png,2,"[-1,1,-1]",5,0,Symb,u,RT,0,0,15,1,1,99,99,u,0.45812,1,2,15,0,15,0,1,,,,,
,,,,,,,,,,,,,,,,,,,,1,2,2021-01-05_15h18.54.464,CL_C2S3,2020.1.3,Win32,60,,,,,i,1,1.07024,1,media/dfnb.png,2,"[-1,1,-1]",4,1,Symb,i,RT,0,0,16,1,1,99,99,i,1.07024,1,2,16,0,16,0,1,,,,,
,,,,,,,,,,,,,,,,,,,,1,2,2021-01-05_15h18.54.464,CL_C2S3,2020.1.3,Win32,60,,,,,i,1,0.496535,1,media/dfnb.png,2,"[-1,1,-1]",4,1,Symb,i,RT,0,0,17,1,1,99,99,i,0.496535,1,2,17,0,17,0,1,,,,,
,,,,,,,,,,,,,,,,,,,,1,2,2021-01-05_15h18.54.464,CL_C2S3,2020.1.3,Win32,60,,,,,h,1,0.51585,1,media/dfnb.png,1,"[1,-1,-1]",1,1,Symb,h,RT,0,0,18,1,1,99,99,h,0.51585,1,2,18,0,18,0,1,,,,,
,,,,,,,,,,,,,,,,,,,,1,2,2021-01-05_15h18.54.464,CL_C2S3,2020.1.3,Win32,60,,,,,i,1,1.003305,2,media/dknb.png,1,"[1,-1,-1]",2,0,Symb,i,RT,0,0,19,1,1,99,99,i,1.003305,1,2,19,0,19,0,1,,,,,
,,,,,,,,,,,,,,,,,,,,1,2,2021-01-05_15h18.54.464,CL_C2S3,2020.1.3,Win32,60,,,,,i,1,0.704915,2,media/dknb.png,1,"[1,-1,-1]",2,0,Symb,i,RT,0,0,20,1,1,99,99,i,0.704915,1,2,20,0,20,0,1,,,,,
,,,,,,,,,,,,,,,,,,,,1,2,2021-01-05_15h18.54.464,CL_C2S3,2020.1.3,Win32,60,,,,,u,1,0.93687,0,media/dcnb.png,1,"[1,-1,-1]",0,0,Symb,u,RT,0,0,21,1,1,99,99,u,0.93687,1,2,21,0,21,0,1,,,,,
,,,,,,,,,,,,,,,,,,,,1,2,2021-01-05_15h18.54.464,CL_C2S3,2020.1.3,Win32,60,,,,,h,1,0.643325,0,media/dcnb.png,2,"[-1,1,-1]",3,0,Symb,h,RT,0,0,22,1,1,99,99,h,0.643325,1,2,22,0,22,0,1,,,,,
,,,,,,,,,,,,,,,,,,,,1,2,2021-01-05_15h18.54.464,CL_C2S3,2020.1.3,Win32,60,,,,,u,1,0.503225,0,media/dcnb.png,1,"[1,-1,-1]",0,0,Symb,u,RT,0,0,23,1,1,99,99,u,0.503225,1,2,23,0,23,0,1,,,,,
,,,,,,,,,,,,,,,,,,,,1,2,2021-01-05_15h18.54.464,CL_C2S3,2020.1.3,Win32,60,,,,,u,1,0.45542,0,media/dcnb.png,1,"[1,-1,-1]",0,0,Symb,u,RT,0,0,24,1,1,99,99,u,0.45542,1,2,24,0,24,0,1,,,,,
,,,,,,,,,,,,,,,,,,,,1,2,2021-01-05_15h18.54.464,CL_C2S3,2020.1.3,Win32,60,,,,,u,1,0.814285,2,media/dknb.png,2,"[-1,1,-1]",5,0,Symb,u,RT,0,0,25,1,1,99,99,u,0.814285,1,2,25,0,25,0,1,,,,,
,,,,,,,,,,,,,,,,,,,,1,2,2021-01-05_15h18.54.464,CL_C2S3,2020.1.3,Win32,60,,,,,i,1,0.941475,1,media/dfnb.png,2,"[-1,1,-1]",4,1,Symb,i,RT,0,0,26,1,1,99,99,i,0.941475,1,2,26,0,26,0,1,,,,,
,,,,,,,,,,,,,,,,,,,,1,2,2021-01-05_15h18.54.464,CL_C2S3,2020.1.3,Win32,60,,,,,i,1,0.338915,2,media/dknb.png,1,"[1,-1,-1]",2,0,Symb,i,RT,0,0,27,1,1,99,99,i,0.338915,1,2,27,0,27,0,1,,,,,
,,,,,,,,,,,,,,,,,,,,1,2,2021-01-05_15h18.54.464,CL_C2S3,2020.1.3,Win32,60,,,,,h,1,0.75683,0,media/dcnb.png,2,"[-1,1,-1]",3,0,Symb,h,RT,0,0,28,1,1,99,99,h,0.75683,1,2,28,0,28,0,1,,,,,
,,,,,,,,,,,,,,,,,,,,1,2,2021-01-05_15h18.54.464,CL_C2S3,2020.1.3,Win32,60,,,,,h,1,0.33295,1,media/dfnb.png,1,"[1,-1,-1]",1,1,Symb,h,RT,0,0,29,1,1,99,99,h,0.33295,1,2,29,0,29,0,1,,,,,
,,,,,,,,,,,,,,,,,,,,1,2,2021-01-05_15h18.54.464,CL_C2S3,2020.1.3,Win32,60,,,,,u,0,1.061625,0,media/dcnb.png,2,"[-1,1,-1]",3,0,Symb,h,RT,0,0,30,1,1,99,99,u,1.061625,0,2,30,0,30,0,1,,,,,
,,,,,,,,,,,,,,,,,,,,1,2,2021-01-05_15h18.54.464,CL_C2S3,2020.1.3,Win32,60,,,,,u,1,0.56609,0,media/dcnb.png,1,"[1,-1,-1]",0,0,Symb,u,RT,0,0,31,1,1,99,99,u,0.56609,1,2,31,0,31,0,1,,,,,
,,,,,,,,,,,,,,,,,,,,1,2,2021-01-05_15h18.54.464,CL_C2S3,2020.1.3,Win32,60,,,,,u,1,0.383055,0,media/dcnb.png,1,"[1,-1,-1]",0,0,Symb,u,RT,0,0,32,1,1,99,99,u,0.383055,1,2,32,0,32,0,1,,,,,
,,,,,,,,,,,,,,,,,,,,1,2,2021-01-05_15h18.54.464,CL_C2S3,2020.1.3,Win32,60,,,,,i,1,1.09886,1,media/dfnb.png,2,"[-1,1,-1]",4,1,Symb,i,RT,0,0,33,1,1,99,99,i,1.09886,1,2,33,0,33,0,1,,,,,
,,,,,,,,,,,,,,,,,,,,1,2,2021-01-05_15h18.54.464,CL_C2S3,2020.1.3,Win32,60,,,,,h,1,1.165685,0,media/dcnb.png,2,"[-1,1,-1]",3,0,Symb,h,RT,0,0,34,1,1,99,99,h,1.165685,1,2,34,0,34,0,1,,,,,
,,,,,,,,,,,,,,,,,,,,1,2,2021-01-05_15h18.54.464,CL_C2S3,2020.1.3,Win32,60,,,,,h,1,0.73484,1,media/dfnb.png,1,"[1,-1,-1]",1,1,Symb,h,RT,0,0,35,1,1,99,99,h,0.73484,1,2,35,0,35,0,1,,,,,
,,,,,,,,,,,,,,,,,,,,1,2,2021-01-05_15h18.54.464,CL_C2S3,2020.1.3,Win32,60,,,,,u,0,0.56573,2,media/dknb.png,1,"[1,-1,-1]",2,0,Symb,i,RT,0,0,36,1,1,99,99,u,0.56573,0,2,36,0,36,0,1,,,,,
,,,,,,,,,,,,,,,,,,,,1,2,2021-01-05_15h18.54.464,CL_C2S3,2020.1.3,Win32,60,,,,,i,0,0.356335,2,media/dknb.png,2,"[-1,1,-1]",5,0,Symb,u,RT,0,0,37,1,1,99,99,i,0.356335,0,2,37,0,37,0,1,,,,,
,,,,,,,,,,,,,,,,,,,,1,2,2021-01-05_15h18.54.464,CL_C2S3,2020.1.3,Win32,60,,,,,i,1,0.847105,1,media/dfnb.png,2,"[-1,1,-1]",4,1,Symb,i,RT,0,0,38,1,1,99,99,i,0.847105,1,2,38,0,38,0,1,,,,,
,,,,,,,,,,,,,,,,,,,,1,2,2021-01-05_15h18.54.464,CL_C2S3,2020.1.3,Win32,60,,,,,h,1,0.55803,1,media/dfnb.png,1,"[1,-1,-1]",1,1,Symb,h,RT,0,0,39,1,1,99,99,h,0.55803,1,2,39,0,39,0,1,,,,,
,,,,,,,,,,,,,,,,,,,,1,2,2021-01-05_15h18.54.464,CL_C2S3,2020.1.3,Win32,60,,,,,i,1,2.41646,2,media/dknb.png,1,"[1,-1,-1]",2,0,Symb,i,RT,0,0,40,1,1,99,99,i,2.41646,1,2,40,0,40,0,1,,,,,
,,,,,,,,,,,,,,,,,,,,1,2,2021-01-05_15h18.54.464,CL_C2S3,2020.1.3,Win32,60,,,,,u,1,2.44641,2,media/dknb.png,2,"[-1,1,-1]",5,0,Symb,u,RT,0,0,41,1,1,99,99,u,2.44641,1,2,41,0,41,0,1,,,,,
,,,,,,,,,,,,,,,,,,,,1,2,2021-01-05_15h18.54.464,CL_C2S3,2020.1.3,Win32,60,,,,,h,1,1.108315,1,media/dfnb.png,1,"[1,-1,-1]",1,1,Symb,h,RT,0,0,42,1,1,99,99,h,1.108315,1,2,42,0,42,0,1,,,,,
,,,,,,,,,,,,,,,,,,,,1,2,2021-01-05_15h18.54.464,CL_C2S3,2020.1.3,Win32,60,,,,,h,1,3.40611,0,media/dcnb.png,2,"[-1,1,-1]",3,0,Symb,h,RT,0,0,43,1,1,99,99,h,3.40611,1,2,43,0,43,0,1,,,,,
,,,,,,,,,,,,,,,,,,,,1,2,2021-01-05_15h18.54.464,CL_C2S3,2020.1.3,Win32,60,,,,,u,1,0.738805,2,media/dknb.png,2,"[-1,1,-1]",5,0,Symb,u,RT,0,0,44,1,1,99,99,u,0.738805,1,2,44,0,44,0,1,,,,,
,,,,,,,,,,,,,,,,,,,,1,2,2021-01-05_15h18.54.464,CL_C2S3,2020.1.3,Win32,60,,,,,i,1,0.581855,2,media/dknb.png,1,"[1,-1,-1]",2,0,Symb,i,RT,0,0,45,1,1,99,99,i,0.581855,1,2,45,0,45,0,1,,,,,
,,,,,,,,,,,,,,,,,,,,1,2,2021-01-05_15h18.54.464,CL_C2S3,2020.1.3,Win32,60,,,,,u,1,0.73217,2,media/dknb.png,2,"[-1,1,-1]",5,0,Symb,u,RT,0,0,46,1,1,99,99,u,0.73217,1,2,46,0,46,0,1,,,,,
,,,,,,,,,,,,,,,,,,,,1,2,2021-01-05_15h18.54.464,CL_C2S3,2020.1.3,Win32,60,,,,,u,1,3.662305,0,media/dcnb.png,1,"[1,-1,-1]",0,0,Symb,u,RT,0,0,47,1,1,99,99,u,3.662305,1,2,47,0,47,0,1,,,,,
,,,,,,,,,,,,,,,,,,,,1,2,2021-01-05_15h18.54.464,CL_C2S3,2020.1.3,Win32,60,,,,,u,1,0.46014,0,media/dcnb.png,1,"[1,-1,-1]",0,0,Symb,u,RT,0,0,48,1,1,99,99,u,0.46014,1,2,48,0,48,0,1,,,,,
,,,,,,,,,,,,,,,,,,,,1,2,2021-01-05_15h18.54.464,CL_C2S3,2020.1.3,Win32,60,,,,,i,1,1.156925,2,media/dknb.png,1,"[1,-1,-1]",2,0,Symb,i,RT,0,0,49,1,1,99,99,i,1.156925,1,2,49,0,49,0,1,,,,,
,,,,,,,,,,,,,,,,,,,,1,2,2021-01-05_15h18.54.464,CL_C2S3,2020.1.3,Win32,60,,,,,h,1,2.56449,0,media/dcnb.png,2,"[-1,1,-1]",3,0,Symb,h,RT,0,0,50,1,1,99,99,h,2.56449,1,2,50,0,50,0,1,,,,,
,,,,,,,,,,,,,,,,,,,,1,2,2021-01-05_15h18.54.464,CL_C2S3,2020.1.3,Win32,60,,,,,i,1,1.29195,1,media/dfnb.png,2,"[-1,1,-1]",4,1,Symb,i,RT,0,0,51,1,1,99,99,i,1.29195,1,2,51,0,51,0,1,,,,,
,,,,,,,,,,,,,,,,,,,,1,2,2021-01-05_15h18.54.464,CL_C2S3,2020.1.3,Win32,60,,,,,i,1,0.39445,1,media/dfnb.png,2,"[-1,1,-1]",4,1,Symb,i,RT,0,0,52,1,1,99,99,i,0.39445,1,2,52,0,52,0,1,,,,,
,,,,,,,,,,,,,,,,,,,,1,2,2021-01-05_15h18.54.464,CL_C2S3,2020.1.3,Win32,60,,,,,h,1,0.586935,1,media/dfnb.png,1,"[1,-1,-1]",1,1,Symb,h,RT,0,0,53,1,1,99,99,h,0.586935,1,2,53,0,53,0,1,,,,,
,,,,,,,,,,,,,,,,,,,,1,2,2021-01-05_15h18.54.464,CL_C2S3,2020.1.3,Win32,60,,,,,h,0,0.40591,1,media/dfnb.png,2,"[-1,1,-1]",4,1,Symb,i,RT,0,0,54,1,1,99,99,h,0.40591,0,2,54,0,54,0,1,,,,,
,,,,,,,,,,,,,,,,,,,,1,2,2021-01-05_15h18.54.464,CL_C2S3,2020.1.3,Win32,60,,,,,u,1,0.89493,2,media/dknb.png,2,"[-1,1,-1]",5,0,Symb,u,RT,0,0,55,1,1,99,99,u,0.89493,1,2,55,0,55,0,1,,,,,
,,,,,,,,,,,,,,,,,,,,1,2,2021-01-05_15h18.54.464,CL_C2S3,2020.1.3,Win32,60,,,,,h,1,1.710655,0,media/dcnb.png,2,"[-1,1,-1]",3,0,Symb,h,RT,0,0,56,1,1,99,99,h,1.710655,1,2,56,0,56,0,1,,,,,
,,,,,,,,,,,,,,,,,,,,1,2,2021-01-05_15h18.54.464,CL_C2S3,2020.1.3,Win32,60,,,,,h,1,0.72897,1,media/dfnb.png,1,"[1,-1,-1]",1,1,Symb,h,RT,0,0,57,1,1,99,99,h,0.72897,1,2,57,0,57,0,1,,,,,
,,,,,,,,,,,,,,,,,,,,1,2,2021-01-05_15h18.54.464,CL_C2S3,2020.1.3,Win32,60,,,,,i,1,0.92322,2,media/dknb.png,1,"[1,-1,-1]",2,0,Symb,i,RT,0,0,58,1,1,99,99,i,0.92322,1,2,58,0,58,0,1,,,,,
,,,,,,,,,,,,,,,,,,,,1,2,2021-01-05_15h18.54.464,CL_C2S3,2020.1.3,Win32,60,,,,,u,1,1.37673,0,media/dcnb.png,1,"[1,-1,-1]",0,0,Symb,u,RT,0,0,59,1,1,99,99,u,1.37673,1,2,59,0,59,0,1,,,,,
,,,,,,,,,,,,,,,,,,,,1,2,2021-01-05_15h18.54.464,CL_C2S3,2020.1.3,Win32,60,,,,,i,1,2.020655,1,media/dfnb.png,2,"[-1,1,-1]",4,1,Symb,i,RT,0,0,60,1,1,99,99,i,2.020655,1,2,60,0,60,0,1,,,,,
,,,,,,,,,,,,,,,,,,,,1,2,2021-01-05_15h18.54.464,CL_C2S3,2020.1.3,Win32,60,,,,,i,1,3.786395,2,media/dknb.png,1,"[1,-1,-1]",2,0,Symb,i,RT,0,0,61,1,1,99,99,i,3.786395,1,2,61,0,61,0,1,,,,,
,,,,,,,,,,,,,,,,,,,,1,2,2021-01-05_15h18.54.464,CL_C2S3,2020.1.3,Win32,60,,,,,u,1,1.42709,2,media/dknb.png,2,"[-1,1,-1]",5,0,Symb,u,RT,0,0,62,1,1,99,99,u,1.42709,1,2,62,0,62,0,1,,,,,
,,,,,,,,,,,,,,,,,,,,1,2,2021-01-05_15h18.54.464,CL_C2S3,2020.1.3,Win32,60,,,,,h,1,1.951865,0,media/dcnb.png,2,"[-1,1,-1]",3,0,Symb,h,RT,0,0,63,1,1,99,99,h,1.951865,1,2,63,0,63,0,1,,,,,
,,,,,,,,,,,,,,,,,,,,1,2,2021-01-05_15h18.54.464,CL_C2S3,2020.1.3,Win32,60,,,,,u,1,0.61368,0,media/dcnb.png,1,"[1,-1,-1]",0,0,Symb,u,RT,0,0,64,1,1,99,99,u,0.61368,1,2,64,0,64,0,1,,,,,
,,,,,,,,,,,,,,,,,,,,1,2,2021-01-05_15h18.54.464,CL_C2S3,2020.1.3,Win32,60,,,,,h,1,0.70138,1,media/dfnb.png,1,"[1,-1,-1]",1,1,Symb,h,RT,0,0,65,1,1,99,99,h,0.70138,1,2,65,0,65,0,1,,,,,
,,,,,,,,,,,,,,,,,,,,1,2,2021-01-05_15h18.54.464,CL_C2S3,2020.1.3,Win32,60,,,,,h,1,0.46779,1,media/dfnb.png,1,"[1,-1,-1]",1,1,Symb,h,RT,0,0,66,1,1,99,99,h,0.46779,1,2,66,0,66,0,1,,,,,
,,,,,,,,,,,,,,,,,,,,1,2,2021-01-05_15h18.54.464,CL_C2S3,2020.1.3,Win32,60,,,,,i,1,0.761595,2,media/dknb.png,1,"[1,-1,-1]",2,0,Symb,i,RT,0,0,67,1,1,99,99,i,0.761595,1,2,67,0,67,0,1,,,,,
,,,,,,,,,,,,,,,,,,,,1,2,2021-01-05_15h18.54.464,CL_C2S3,2020.1.3,Win32,60,,,,,h,1,0.82488,0,media/dcnb.png,2,"[-1,1,-1]",3,0,Symb,h,RT,0,0,68,1,1,99,99,h,0.82488,1,2,68,0,68,0,1,,,,,
,,,,,,,,,,,,,,,,,,,,1,2,2021-01-05_15h18.54.464,CL_C2S3,2020.1.3,Win32,60,,,,,u,1,0.68362,2,media/dknb.png,2,"[-1,1,-1]",5,0,Symb,u,RT,0,0,69,1,1,99,99,u,0.68362,1,2,69,0,69,0,1,,,,,
,,,,,,,,,,,,,,,,,,,,1,2,2021-01-05_15h18.54.464,CL_C2S3,2020.1.3,Win32,60,,,,,u,1,0.58819,0,media/dcnb.png,1,"[1,-1,-1]",0,0,Symb,u,RT,0,0,70,1,1,99,99,u,0.58819,1,2,70,0,70,0,1,,,,,
,,,,,,,,,,,,,,,,,,,,1,2,2021-01-05_15h18.54.464,CL_C2S3,2020.1.3,Win32,60,,,,,i,1,0.765745,1,media/dfnb.png,2,"[-1,1,-1]",4,1,Symb,i,RT,0,0,71,1,1,99,99,i,0.765745,1,2,71,0,71,0,1,,,,,
,,,,,,,,,,,,,,,,,,,,1,2,2021-01-05_15h18.54.464,CL_C2S3,2020.1.3,Win32,60,,,,,h,1,0.88002,0,media/dcnb.png,2,"[-1,1,-1]",3,0,Symb,h,RT,0,0,72,1,1,99,99,h,0.88002,1,2,72,0,72,0,1,,,,,
,,,,,,,,,,,,,,,,,,,,1,2,2021-01-05_15h18.54.464,CL_C2S3,2020.1.3,Win32,60,,,,,u,1,0.5995,2,media/dknb.png,2,"[-1,1,-1]",5,0,Symb,u,RT,0,0,73,1,1,99,99,u,0.5995,1,2,73,0,73,0,1,,,,,
,,,,,,,,,,,,,,,,,,,,1,2,2021-01-05_15h18.54.464,CL_C2S3,2020.1.3,Win32,60,,,,,u,1,0.377945,2,media/dknb.png,2,"[-1,1,-1]",5,0,Symb,u,RT,0,0,74,1,1,99,99,u,0.377945,1,2,74,0,74,0,1,,,,,
,,,,,,,,,,,,,,,,,,,,1,2,2021-01-05_15h18.54.464,CL_C2S3,2020.1.3,Win32,60,,,,,u,1,0.63281,0,media/dcnb.png,1,"[1,-1,-1]",0,0,Symb,u,RT,0,0,75,1,1,99,99,u,0.63281,1,2,75,0,75,0,1,,,,,
,,,,,,,,,,,,,,,,,,,,1,2,2021-01-05_15h18.54.464,CL_C2S3,2020.1.3,Win32,60,,,,,i,1,0.93622,1,media/dfnb.png,2,"[-1,1,-1]",4,1,Symb,i,RT,0,0,76,1,1,99,99,i,0.93622,1,2,76,0,76,0,1,,,,,
,,,,,,,,,,,,,,,,,,,,1,2,2021-01-05_15h18.54.464,CL_C2S3,2020.1.3,Win32,60,,,,,i,1,0.36028,1,media/dfnb.png,2,"[-1,1,-1]",4,1,Symb,i,RT,0,0,77,1,1,99,99,i,0.36028,1,2,77,0,77,0,1,,,,,
,,,,,,,,,,,,,,,,,,,,1,2,2021-01-05_15h18.54.464,CL_C2S3,2020.1.3,Win32,60,,,,,i,1,0.804725,2,media/dknb.png,1,"[1,-1,-1]",2,0,Symb,i,RT,0,0,78,1,1,99,99,i,0.804725,1,2,78,0,78,0,1,,,,,
,,,,,,,,,,,,,,,,,,,,1,2,2021-01-05_15h18.54.464,CL_C2S3,2020.1.3,Win32,60,,,,,i,1,0.360725,2,media/dknb.png,1,"[1,-1,-1]",2,0,Symb,i,RT,0,0,79,1,1,99,99,i,0.360725,1,2,79,0,79,0,1,,,,,
,,,,,,,,,,,,,,,,,,,,1,2,2021-01-05_15h18.54.464,CL_C2S3,2020.1.3,Win32,60,,,,,u,0,1.03009,0,media/dcnb.png,2,"[-1,1,-1]",3,0,Symb,h,RT,0,0,80,1,1,99,99,u,1.03009,0,2,80,0,80,0,1,,,,,
,,,,,,,,,,,,,,,,,,,,1,2,2021-01-05_15h18.54.464,CL_C2S3,2020.1.3,Win32,60,,,,,h,1,0.630835,1,media/dfnb.png,1,"[1,-1,-1]",1,1,Symb,h,RT,0,0,81,1,1,99,99,h,0.630835,1,2,81,0,81,0,1,,,,,
,,,,,,,,,,,,,,,,,,,,1,2,2021-01-05_15h18.54.464,CL_C2S3,2020.1.3,Win32,60,,,,,u,1,0.651645,0,media/dcnb.png,1,"[1,-1,-1]",0,0,Symb,u,RT,0,0,82,1,1,99,99,u,0.651645,1,2,82,0,82,0,1,,,,,
,,,,,,,,,,,,,,,,,,,,1,2,2021-01-05_15h18.54.464,CL_C2S3,2020.1.3,Win32,60,,,,,h,1,0.59762,1,media/dfnb.png,1,"[1,-1,-1]",1,1,Symb,h,RT,0,0,83,1,1,99,99,h,0.59762,1,2,83,0,83,0,1,,,,,
,,,,,,,,,,,,,,,,,,,,1,2,2021-01-05_15h18.54.464,CL_C2S3,2020.1.3,Win32,60,,,,,h,1,1.283985,0,media/dcnb.png,2,"[-1,1,-1]",3,0,Symb,h,RT,0,0,84,1,1,99,99,h,1.283985,1,2,84,0,84,0,1,,,,,
,,,,,,,,,,,,,,,,,,,,1,2,2021-01-05_15h18.54.464,CL_C2S3,2020.1.3,Win32,60,,,,,u,1,1.528285,2,media/dknb.png,2,"[-1,1,-1]",5,0,Symb,u,RT,0,0,85,1,1,99,99,u,1.528285,1,2,85,0,85,0,1,,,,,
,,,,,,,,,,,,,,,,,,,,1,2,2021-01-05_15h18.54.464,CL_C2S3,2020.1.3,Win32,60,,,,,h,0,0.8876,1,media/dfnb.png,2,"[-1,1,-1]",4,1,Symb,i,RT,0,0,86,1,1,99,99,h,0.8876,0,2,86,0,86,0,1,,,,,
,,,,,,,,,,,,,,,,,,,,1,2,2021-01-05_15h18.54.464,CL_C2S3,2020.1.3,Win32,60,,,,,u,1,0.661655,0,media/dcnb.png,1,"[1,-1,-1]",0,0,Symb,u,RT,0,0,87,1,1,99,99,u,0.661655,1,2,87,0,87,0,1,,,,,
,,,,,,,,,,,,,,,,,,,,1,2,2021-01-05_15h18.54.464,CL_C2S3,2020.1.3,Win32,60,,,,,h,1,0.63193,1,media/dfnb.png,1,"[1,-1,-1]",1,1,Symb,h,RT,0,0,88,1,1,99,99,h,0.63193,1,2,88,0,88,0,1,,,,,
,,,,,,,,,,,,,,,,,,,,1,2,2021-01-05_15h18.54.464,CL_C2S3,2020.1.3,Win32,60,,,,,i,1,0.898265,2,media/dknb.png,1,"[1,-1,-1]",2,0,Symb,i,RT,0,0,89,1,1,99,99,i,0.898265,1,2,89,0,89,0,1,,,,,
,,,,,,,,,,,,,,,,,,,,1,2,2021-01-05_15h18.54.464,CL_C2S3,2020.1.3,Win32,60,,,,,u,1,0.94377,2,media/dknb.png,2,"[-1,1,-1]",5,0,Symb,u,RT,0,0,90,1,1,99,99,u,0.94377,1,2,90,0,90,0,1,,,,,
,,,,,,,,,,,,,,,,,,,,1,2,2021-01-05_15h18.54.464,CL_C2S3,2020.1.3,Win32,60,,,,,u,1,0.918895,0,media/dcnb.png,1,"[1,-1,-1]",0,0,Symb,u,RT,0,0,91,1,1,99,99,u,0.918895,1,2,91,0,91,0,1,,,,,
,,,,,,,,,,,,,,,,,,,,1,2,2021-01-05_15h18.54.464,CL_C2S3,2020.1.3,Win32,60,,,,,i,1,0.9499,1,media/dfnb.png,2,"[-1,1,-1]",4,1,Symb,i,RT,0,0,92,1,1,99,99,i,0.9499,1,2,92,0,92,0,1,,,,,
,,,,,,,,,,,,,,,,,,,,1,2,2021-01-05_15h18.54.464,CL_C2S3,2020.1.3,Win32,60,,,,,h,1,1.173385,0,media/dcnb.png,2,"[-1,1,-1]",3,0,Symb,h,RT,0,0,93,1,1,99,99,h,1.173385,1,2,93,0,93,0,1,,,,,
,,,,,,,,,,,,,,,,,,,,1,2,2021-01-05_15h18.54.464,CL_C2S3,2020.1.3,Win32,60,,,,,h,1,0.36467,0,media/dcnb.png,2,"[-1,1,-1]",3,0,Symb,h,RT,0,0,94,1,1,99,99,h,0.36467,1,2,94,0,94,0,1,,,,,
,,,,,,,,,,,,,,,,,,,,1,2,2021-01-05_15h18.54.464,CL_C2S3,2020.1.3,Win32,60,,,,,h,1,0.722535,1,media/dfnb.png,1,"[1,-1,-1]",1,1,Symb,h,RT,0,0,95,1,1,99,99,h,0.722535,1,2,95,0,95,0,1,,,,,
,,,,,,,,,,,,,,,,,,,,1,2,2021-01-05_15h18.54.464,CL_C2S3,2020.1.3,Win32,60,,,,,i,1,0.71257,2,media/dknb.png,1,"[1,-1,-1]",2,0,Symb,i,RT,0,0,96,1,1,99,99,i,0.71257,1,2,96,0,96,0,1,,,,,
,,,,,,,,,,,,,,,,,,,,1,2,2021-01-05_15h18.54.464,CL_C2S3,2020.1.3,Win32,60,,,,,i,1,0.37363,2,media/dknb.png,1,"[1,-1,-1]",2,0,Symb,i,RT,0,0,97,1,1,99,99,i,0.37363,1,2,97,0,97,0,1,,,,,
,,,,,,,,,,,,,,,,,,,,1,2,2021-01-05_15h18.54.464,CL_C2S3,2020.1.3,Win32,60,,,,,u,1,0.80697,2,media/dknb.png,2,"[-1,1,-1]",5,0,Symb,u,RT,0,0,98,1,1,99,99,u,0.80697,1,2,98,0,98,0,1,,,,,
,,,,,,,,,,,,,,,,,,,,1,2,2021-01-05_15h18.54.464,CL_C2S3,2020.1.3,Win32,60,,,,,i,1,1.05523,1,media/dfnb.png,2,"[-1,1,-1]",4,1,Symb,i,RT,0,0,99,1,1,99,99,i,1.05523,1,2,99,0,99,0,1,,,,,
,,,,,,,,,,,,,,,,,,,,1,2,2021-01-05_15h18.54.464,CL_C2S3,2020.1.3,Win32,60,,,,,u,1,1.067955,0,media/dcnb.png,1,"[1,-1,-1]",0,0,Symb,u,RT,0,0,100,1,1,99,99,u,1.067955,1,2,100,0,100,0,1,,,,,
,,,,,,,,,,,,,,,,,,,,1,2,2021-01-05_15h18.54.464,CL_C2S3,2020.1.3,Win32,60,,,,,h,1,1.187425,1,media/dfnb.png,1,"[1,-1,-1]",1,1,Symb,h,RT,0,0,101,1,1,99,99,h,1.187425,1,2,101,0,101,0,1,,,,,
,,,,,,,,,,,,,,,,,,,,1,2,2021-01-05_15h18.54.464,CL_C2S3,2020.1.3,Win32,60,,,,,u,1,1.4333,0,media/dcnb.png,1,"[1,-1,-1]",0,0,Symb,u,RT,0,0,102,1,1,99,99,u,1.4333,1,2,102,0,102,0,1,,,,,
,,,,,,,,,,,,,,,,,,,,1,2,2021-01-05_15h18.54.464,CL_C2S3,2020.1.3,Win32,60,,,,,i,1,0.67225,2,media/dknb.png,1,"[1,-1,-1]",2,0,Symb,i,RT,0,0,103,1,1,99,99,i,0.67225,1,2,103,0,103,0,1,,,,,
,,,,,,,,,,,,,,,,,,,,1,2,2021-01-05_15h18.54.464,CL_C2S3,2020.1.3,Win32,60,,,,,u,1,0.738925,0,media/dcnb.png,1,"[1,-1,-1]",0,0,Symb,u,RT,0,0,104,1,1,99,99,u,0.738925,1,2,104,0,104,0,1,,,,,
,,,,,,,,,,,,,,,,,,,,1,2,2021-01-05_15h18.54.464,CL_C2S3,2020.1.3,Win32,60,,,,,i,1,0.53936,2,media/dknb.png,1,"[1,-1,-1]",2,0,Symb,i,RT,0,0,105,1,1,99,99,i,0.53936,1,2,105,0,105,0,1,,,,,
,,,,,,,,,,,,,,,,,,,,1,2,2021-01-05_15h18.54.464,CL_C2S3,2020.1.3,Win32,60,,,,,i,1,0.802575,1,media/dfnb.png,2,"[-1,1,-1]",4,1,Symb,i,RT,0,0,106,1,1,99,99,i,0.802575,1,2,106,0,106,0,1,,,,,
,,,,,,,,,,,,,,,,,,,,1,2,2021-01-05_15h18.54.464,CL_C2S3,2020.1.3,Win32,60,,,,,h,1,0.85928,0,media/dcnb.png,2,"[-1,1,-1]",3,0,Symb,h,RT,0,0,107,1,1,99,99,h,0.85928,1,2,107,0,107,0,1,,,,,
,,,,,,,,,,,,,,,,,,,,1,2,2021-01-05_15h18.54.464,CL_C2S3,2020.1.3,Win32,60,,,,,h,1,0.410535,0,media/dcnb.png,2,"[-1,1,-1]",3,0,Symb,h,RT,0,0,108,1,1,99,99,h,0.410535,1,2,108,0,108,0,1,,,,,
,,,,,,,,,,,,,,,,,,,,1,2,2021-01-05_15h18.54.464,CL_C2S3,2020.1.3,Win32,60,,,,,h,1,0.601655,1,media/dfnb.png,1,"[1,-1,-1]",1,1,Symb,h,RT,0,0,109,1,1,99,99,h,0.601655,1,2,109,0,109,0,1,,,,,
,,,,,,,,,,,,,,,,,,,,1,2,2021-01-05_15h18.54.464,CL_C2S3,2020.1.3,Win32,60,,,,,u,1,1.081575,2,media/dknb.png,2,"[-1,1,-1]",5,0,Symb,u,RT,0,0,110,1,1,99,99,u,1.081575,1,2,110,0,110,0,1,,,,,
,,,,,,,,,,,,,,,,,,,,1,2,2021-01-05_15h18.54.464,CL_C2S3,2020.1.3,Win32,60,,,,,h,0,0.95423,1,media/dfnb.png,2,"[-1,1,-1]",4,1,Symb,i,RT,0,0,111,1,1,99,99,h,0.95423,0,2,111,0,111,0,1,,,,,
,,,,,,,,,,,,,,,,,,,,1,2,2021-01-05_15h18.54.464,CL_C2S3,2020.1.3,Win32,60,,,,,h,1,0.560955,1,media/dfnb.png,1,"[1,-1,-1]",1,1,Symb,h,RT,0,0,112,1,1,99,99,h,0.560955,1,2,112,0,112,0,1,,,,,
,,,,,,,,,,,,,,,,,,,,1,2,2021-01-05_15h18.54.464,CL_C2S3,2020.1.3,Win32,60,,,,,u,1,0.74635,2,media/dknb.png,2,"[-1,1,-1]",5,0,Symb,u,RT,0,0,113,1,1,99,99,u,0.74635,1,2,113,0,113,0,1,,,,,
,,,,,,,,,,,,,,,,,,,,1,2,2021-01-05_15h18.54.464,CL_C2S3,2020.1.3,Win32,60,,,,,h,0,0.70445,1,media/dfnb.png,2,"[-1,1,-1]",4,1,Symb,i,RT,0,0,114,1,1,99,99,h,0.70445,0,2,114,0,114,0,1,,,,,
,,,,,,,,,,,,,,,,,,,,1,2,2021-01-05_15h18.54.464,CL_C2S3,2020.1.3,Win32,60,,,,,u,0,0.906235,2,media/dknb.png,1,"[1,-1,-1]",2,0,Symb,i,RT,0,0,115,1,1,99,99,u,0.906235,0,2,115,0,115,0,1,,,,,
,,,,,,,,,,,,,,,,,,,,1,2,2021-01-05_15h18.54.464,CL_C2S3,2020.1.3,Win32,60,,,,,h,1,1.577305,1,media/dfnb.png,1,"[1,-1,-1]",1,1,Symb,h,RT,0,0,116,1,1,99,99,h,1.577305,1,2,116,0,116,0,1,,,,,
,,,,,,,,,,,,,,,,,,,,1,2,2021-01-05_15h18.54.464,CL_C2S3,2020.1.3,Win32,60,,,,,u,1,0.678115,0,media/dcnb.png,1,"[1,-1,-1]",0,0,Symb,u,RT,0,0,117,1,1,99,99,u,0.678115,1,2,117,0,117,0,1,,,,,
,,,,,,,,,,,,,,,,,,,,1,2,2021-01-05_15h18.54.464,CL_C2S3,2020.1.3,Win32,60,,,,,h,1,0.838535,0,media/dcnb.png,2,"[-1,1,-1]",3,0,Symb,h,RT,0,0,118,1,1,99,99,h,0.838535,1,2,118,0,118,0,1,,,,,
,,,,,,,,,,,,,,,,,,,,1,2,2021-01-05_15h18.54.464,CL_C2S3,2020.1.3,Win32,60,,,,,u,1,0.750005,2,media/dknb.png,2,"[-1,1,-1]",5,0,Symb,u,RT,0,0,119,1,1,99,99,u,0.750005,1,2,119,0,119,0,1,,,,,
,,,,,,,,,,,,,,,,,,,,1,2,2021-01-05_15h18.54.464,CL_C2S3,2020.1.3,Win32,60,,,,,,,,,,,,,,,,,,,,,,,,,,,,,,,,,0,0,0,0,1
,,,,,,,,,,,,,,,,,,,,1,2,2021-01-05_15h18.54.464,CL_C2S3,2020.1.3,Win32,60,,,h,4.34631,h,1,1.002575,0,media/dcnb.png,2,"[-1,1,-1]",3,0,Symb,h,RT,0,0,0,1,2,99,99,h,1.002575,1,2,0,0,0,0,1,,,,,
,,,,,,,,,,,,,,,,,,,,1,2,2021-01-05_15h18.54.464,CL_C2S3,2020.1.3,Win32,60,,,,,u,1,0.5976,2,media/dknb.png,2,"[-1,1,-1]",5,0,Symb,u,RT,0,0,1,1,2,99,99,u,0.5976,1,2,1,0,1,0,1,,,,,
,,,,,,,,,,,,,,,,,,,,1,2,2021-01-05_15h18.54.464,CL_C2S3,2020.1.3,Win32,60,,,,,h,1,0.792465,0,media/dcnb.png,2,"[-1,1,-1]",3,0,Symb,h,RT,0,0,2,1,2,99,99,h,0.792465,1,2,2,0,2,0,1,,,,,
,,,,,,,,,,,,,,,,,,,,1,2,2021-01-05_15h18.54.464,CL_C2S3,2020.1.3,Win32,60,,,,,h,1,0.72394,1,media/dfnb.png,1,"[1,-1,-1]",1,1,Symb,h,RT,0,0,3,1,2,99,99,h,0.72394,1,2,3,0,3,0,1,,,,,
,,,,,,,,,,,,,,,,,,,,1,2,2021-01-05_15h18.54.464,CL_C2S3,2020.1.3,Win32,60,,,,,i,1,0.57074,1,media/dfnb.png,2,"[-1,1,-1]",4,1,Symb,i,RT,0,0,4,1,2,99,99,i,0.57074,1,2,4,0,4,0,1,,,,,
,,,,,,,,,,,,,,,,,,,,1,2,2021-01-05_15h18.54.464,CL_C2S3,2020.1.3,Win32,60,,,,,u,1,0.65178,0,media/dcnb.png,1,"[1,-1,-1]",0,0,Symb,u,RT,0,0,5,1,2,99,99,u,0.65178,1,2,5,0,5,0,1,,,,,
,,,,,,,,,,,,,,,,,,,,1,2,2021-01-05_15h18.54.464,CL_C2S3,2020.1.3,Win32,60,,,,,h,0,0.551805,1,media/dfnb.png,2,"[-1,1,-1]",4,1,Symb,i,RT,0,0,6,1,2,99,99,h,0.551805,0,2,6,0,6,0,1,,,,,
,,,,,,,,,,,,,,,,,,,,1,2,2021-01-05_15h18.54.464,CL_C2S3,2020.1.3,Win32,60,,,,,u,1,0.833805,2,media/dknb.png,2,"[-1,1,-1]",5,0,Symb,u,RT,0,0,7,1,2,99,99,u,0.833805,1,2,7,0,7,0,1,,,,,
,,,,,,,,,,,,,,,,,,,,1,2,2021-01-05_15h18.54.464,CL_C2S3,2020.1.3,Win32,60,,,,,i,1,0.362215,2,media/dknb.png,1,"[1,-1,-1]",2,0,Symb,i,RT,0,0,8,1,2,99,99,i,0.362215,1,2,8,0,8,0,1,,,,,
,,,,,,,,,,,,,,,,,,,,1,2,2021-01-05_15h18.54.464,CL_C2S3,2020.1.3,Win32,60,,,,,u,1,0.74822,0,media/dcnb.png,1,"[1,-1,-1]",0,0,Symb,u,RT,0,0,9,1,2,99,99,u,0.74822,1,2,9,0,9,0,1,,,,,
,,,,,,,,,,,,,,,,,,,,1,2,2021-01-05_15h18.54.464,CL_C2S3,2020.1.3,Win32,60,,,,,i,1,0.798715,2,media/dknb.png,1,"[1,-1,-1]",2,0,Symb,i,RT,0,0,10,1,2,99,99,i,0.798715,1,2,10,0,10,0,1,,,,,
,,,,,,,,,,,,,,,,,,,,1,2,2021-01-05_15h18.54.464,CL_C2S3,2020.1.3,Win32,60,,,,,h,1,0.466075,1,media/dfnb.png,1,"[1,-1,-1]",1,1,Symb,h,RT,0,0,11,1,2,99,99,h,0.466075,1,2,11,0,11,0,1,,,,,
,,,,,,,,,,,,,,,,,,,,1,2,2021-01-05_15h18.54.464,CL_C2S3,2020.1.3,Win32,60,,,,,u,1,0.787155,0,media/dcnb.png,1,"[1,-1,-1]",0,0,Symb,u,RT,0,0,12,1,2,99,99,u,0.787155,1,2,12,0,12,0,1,,,,,
,,,,,,,,,,,,,,,,,,,,1,2,2021-01-05_15h18.54.464,CL_C2S3,2020.1.3,Win32,60,,,,,u,1,0.56202,0,media/dcnb.png,1,"[1,-1,-1]",0,0,Symb,u,RT,0,0,13,1,2,99,99,u,0.56202,1,2,13,0,13,0,1,,,,,
,,,,,,,,,,,,,,,,,,,,1,2,2021-01-05_15h18.54.464,CL_C2S3,2020.1.3,Win32,60,,,,,i,1,0.56101,1,media/dfnb.png,2,"[-1,1,-1]",4,1,Symb,i,RT,0,0,14,1,2,99,99,i,0.56101,1,2,14,0,14,0,1,,,,,
,,,,,,,,,,,,,,,,,,,,1,2,2021-01-05_15h18.54.464,CL_C2S3,2020.1.3,Win32,60,,,,,i,1,0.364015,1,media/dfnb.png,2,"[-1,1,-1]",4,1,Symb,i,RT,0,0,15,1,2,99,99,i,0.364015,1,2,15,0,15,0,1,,,,,
,,,,,,,,,,,,,,,,,,,,1,2,2021-01-05_15h18.54.464,CL_C2S3,2020.1.3,Win32,60,,,,,u,1,0.591625,2,media/dknb.png,2,"[-1,1,-1]",5,0,Symb,u,RT,0,0,16,1,2,99,99,u,0.591625,1,2,16,0,16,0,1,,,,,
,,,,,,,,,,,,,,,,,,,,1,2,2021-01-05_15h18.54.464,CL_C2S3,2020.1.3,Win32,60,,,,,h,1,0.61055,1,media/dfnb.png,1,"[1,-1,-1]",1,1,Symb,h,RT,0,0,17,1,2,99,99,h,0.61055,1,2,17,0,17,0,1,,,,,
,,,,,,,,,,,,,,,,,,,,1,2,2021-01-05_15h18.54.464,CL_C2S3,2020.1.3,Win32,60,,,,,i,1,0.714245,2,media/dknb.png,1,"[1,-1,-1]",2,0,Symb,i,RT,0,0,18,1,2,99,99,i,0.714245,1,2,18,0,18,0,1,,,,,
,,,,,,,,,,,,,,,,,,,,1,2,2021-01-05_15h18.54.464,CL_C2S3,2020.1.3,Win32,60,,,,,h,1,0.71422,0,media/dcnb.png,2,"[-1,1,-1]",3,0,Symb,h,RT,0,0,19,1,2,99,99,h,0.71422,1,2,19,0,19,0,1,,,,,
,,,,,,,,,,,,,,,,,,,,1,2,2021-01-05_15h18.54.464,CL_C2S3,2020.1.3,Win32,60,,,,,u,1,0.57043,2,media/dknb.png,2,"[-1,1,-1]",5,0,Symb,u,RT,0,0,20,1,2,99,99,u,0.57043,1,2,20,0,20,0,1,,,,,
,,,,,,,,,,,,,,,,,,,,1,2,2021-01-05_15h18.54.464,CL_C2S3,2020.1.3,Win32,60,,,,,h,1,0.63631,1,media/dfnb.png,1,"[1,-1,-1]",1,1,Symb,h,RT,0,0,21,1,2,99,99,h,0.63631,1,2,21,0,21,0,1,,,,,
,,,,,,,,,,,,,,,,,,,,1,2,2021-01-05_15h18.54.464,CL_C2S3,2020.1.3,Win32,60,,,,,i,1,0.603595,2,media/dknb.png,1,"[1,-1,-1]",2,0,Symb,i,RT,0,0,22,1,2,99,99,i,0.603595,1,2,22,0,22,0,1,,,,,
,,,,,,,,,,,,,,,,,,,,1,2,2021-01-05_15h18.54.464,CL_C2S3,2020.1.3,Win32,60,,,,,h,1,0.89732,0,media/dcnb.png,2,"[-1,1,-1]",3,0,Symb,h,RT,0,0,23,1,2,99,99,h,0.89732,1,2,23,0,23,0,1,,,,,
,,,,,,,,,,,,,,,,,,,,1,2,2021-01-05_15h18.54.464,CL_C2S3,2020.1.3,Win32,60,,,,,h,1,1.754575,1,media/dfnb.png,1,"[1,-1,-1]",1,1,Symb,h,RT,0,0,24,1,2,99,99,h,1.754575,1,2,24,0,24,0,1,,,,,
,,,,,,,,,,,,,,,,,,,,1,2,2021-01-05_15h18.54.464,CL_C2S3,2020.1.3,Win32,60,,,,,u,1,0.584615,2,media/dknb.png,2,"[-1,1,-1]",5,0,Symb,u,RT,0,0,25,1,2,99,99,u,0.584615,1,2,25,0,25,0,1,,,,,
,,,,,,,,,,,,,,,,,,,,1,2,2021-01-05_15h18.54.464,CL_C2S3,2020.1.3,Win32,60,,,,,i,1,0.66229,1,media/dfnb.png,2,"[-1,1,-1]",4,1,Symb,i,RT,0,0,26,1,2,99,99,i,0.66229,1,2,26,0,26,0,1,,,,,
,,,,,,,,,,,,,,,,,,,,1,2,2021-01-05_15h18.54.464,CL_C2S3,2020.1.3,Win32,60,,,,,h,0,0.755885,0,media/dcnb.png,1,"[1,-1,-1]",0,0,Symb,u,RT,0,0,27,1,2,99,99,h,0.755885,0,2,27,0,27,0,1,,,,,
,,,,,,,,,,,,,,,,,,,,1,2,2021-01-05_15h18.54.464,CL_C2S3,2020.1.3,Win32,60,,,,,h,1,0.39584,0,media/dcnb.png,2,"[-1,1,-1]",3,0,Symb,h,RT,0,0,28,1,2,99,99,h,0.39584,1,2,28,0,28,0,1,,,,,
,,,,,,,,,,,,,,,,,,,,1,2,2021-01-05_15h18.54.464,CL_C2S3,2020.1.3,Win32,60,,,,,i,1,0.733795,2,media/dknb.png,1,"[1,-1,-1]",2,0,Symb,i,RT,0,0,29,1,2,99,99,i,0.733795,1,2,29,0,29,0,1,,,,,
,,,,,,,,,,,,,,,,,,,,1,2,2021-01-05_15h18.54.464,CL_C2S3,2020.1.3,Win32,60,,,,,i,0,0.39497,2,media/dknb.png,2,"[-1,1,-1]",5,0,Symb,u,RT,0,0,30,1,2,99,99,i,0.39497,0,2,30,0,30,0,1,,,,,
,,,,,,,,,,,,,,,,,,,,1,2,2021-01-05_15h18.54.464,CL_C2S3,2020.1.3,Win32,60,,,,,h,1,0.81877,0,media/dcnb.png,2,"[-1,1,-1]",3,0,Symb,h,RT,0,0,31,1,2,99,99,h,0.81877,1,2,31,0,31,0,1,,,,,
,,,,,,,,,,,,,,,,,,,,1,2,2021-01-05_15h18.54.464,CL_C2S3,2020.1.3,Win32,60,,,,,i,1,1.03019,1,media/dfnb.png,2,"[-1,1,-1]",4,1,Symb,i,RT,0,0,32,1,2,99,99,i,1.03019,1,2,32,0,32,0,1,,,,,
,,,,,,,,,,,,,,,,,,,,1,2,2021-01-05_15h18.54.464,CL_C2S3,2020.1.3,Win32,60,,,,,h,1,0.90445,0,media/dcnb.png,2,"[-1,1,-1]",3,0,Symb,h,RT,0,0,33,1,2,99,99,h,0.90445,1,2,33,0,33,0,1,,,,,
,,,,,,,,,,,,,,,,,,,,1,2,2021-01-05_15h18.54.464,CL_C2S3,2020.1.3,Win32,60,,,,,i,1,0.92878,2,media/dknb.png,1,"[1,-1,-1]",2,0,Symb,i,RT,0,0,34,1,2,99,99,i,0.92878,1,2,34,0,34,0,1,,,,,
,,,,,,,,,,,,,,,,,,,,1,2,2021-01-05_15h18.54.464,CL_C2S3,2020.1.3,Win32,60,,,,,h,1,0.762955,1,media/dfnb.png,1,"[1,-1,-1]",1,1,Symb,h,RT,0,0,35,1,2,99,99,h,0.762955,1,2,35,0,35,0,1,,,,,
,,,,,,,,,,,,,,,,,,,,1,2,2021-01-05_15h18.54.464,CL_C2S3,2020.1.3,Win32,60,,,,,i,1,1.04182,2,media/dknb.png,1,"[1,-1,-1]",2,0,Symb,i,RT,0,0,36,1,2,99,99,i,1.04182,1,2,36,0,36,0,1,,,,,
,,,,,,,,,,,,,,,,,,,,1,2,2021-01-05_15h18.54.464,CL_C2S3,2020.1.3,Win32,60,,,,,h,1,0.91368,1,media/dfnb.png,1,"[1,-1,-1]",1,1,Symb,h,RT,0,0,37,1,2,99,99,h,0.91368,1,2,37,0,37,0,1,,,,,
,,,,,,,,,,,,,,,,,,,,1,2,2021-01-05_15h18.54.464,CL_C2S3,2020.1.3,Win32,60,,,,,u,1,1.11963,0,media/dcnb.png,1,"[1,-1,-1]",0,0,Symb,u,RT,0,0,38,1,2,99,99,u,1.11963,1,2,38,0,38,0,1,,,,,
,,,,,,,,,,,,,,,,,,,,1,2,2021-01-05_15h18.54.464,CL_C2S3,2020.1.3,Win32,60,,,,,u,1,0.506065,0,media/dcnb.png,1,"[1,-1,-1]",0,0,Symb,u,RT,0,0,39,1,2,99,99,u,0.506065,1,2,39,0,39,0,1,,,,,
,,,,,,,,,,,,,,,,,,,,1,2,2021-01-05_15h18.54.464,CL_C2S3,2020.1.3,Win32,60,,,,,h,0,1.470005,2,media/dknb.png,2,"[-1,1,-1]",5,0,Symb,u,RT,0,0,40,1,2,99,99,h,1.470005,0,2,40,0,40,0,1,,,,,
,,,,,,,,,,,,,,,,,,,,1,2,2021-01-05_15h18.54.464,CL_C2S3,2020.1.3,Win32,60,,,,,i,1,1.11549,1,media/dfnb.png,2,"[-1,1,-1]",4,1,Symb,i,RT,0,0,41,1,2,99,99,i,1.11549,1,2,41,0,41,0,1,,,,,
,,,,,,,,,,,,,,,,,,,,1,2,2021-01-05_15h18.54.464,CL_C2S3,2020.1.3,Win32,60,,,,,i,1,0.41484,1,media/dfnb.png,2,"[-1,1,-1]",4,1,Symb,i,RT,0,0,42,1,2,99,99,i,0.41484,1,2,42,0,42,0,1,,,,,
,,,,,,,,,,,,,,,,,,,,1,2,2021-01-05_15h18.54.464,CL_C2S3,2020.1.3,Win32,60,,,,,h,1,3.170205,1,media/dfnb.png,1,"[1,-1,-1]",1,1,Symb,h,RT,0,0,43,1,2,99,99,h,3.170205,1,2,43,0,43,0,1,,,,,
,,,,,,,,,,,,,,,,,,,,1,2,2021-01-05_15h18.54.464,CL_C2S3,2020.1.3,Win32,60,,,,,i,1,5.09614,2,media/dknb.png,1,"[1,-1,-1]",2,0,Symb,i,RT,0,0,44,1,2,99,99,i,5.09614,1,2,44,0,44,0,1,,,,,
,,,,,,,,,,,,,,,,,,,,1,2,2021-01-05_15h18.54.464,CL_C2S3,2020.1.3,Win32,60,,,,,i,1,0.79049,1,media/dfnb.png,2,"[-1,1,-1]",4,1,Symb,i,RT,0,0,45,1,2,99,99,i,0.79049,1,2,45,0,45,0,1,,,,,
,,,,,,,,,,,,,,,,,,,,1,2,2021-01-05_15h18.54.464,CL_C2S3,2020.1.3,Win32,60,,,,,h,1,0.67434,1,media/dfnb.png,1,"[1,-1,-1]",1,1,Symb,h,RT,0,0,46,1,2,99,99,h,0.67434,1,2,46,0,46,0,1,,,,,
,,,,,,,,,,,,,,,,,,,,1,2,2021-01-05_15h18.54.464,CL_C2S3,2020.1.3,Win32,60,,,,,h,1,0.904365,0,media/dcnb.png,2,"[-1,1,-1]",3,0,Symb,h,RT,0,0,47,1,2,99,99,h,0.904365,1,2,47,0,47,0,1,,,,,
,,,,,,,,,,,,,,,,,,,,1,2,2021-01-05_15h18.54.464,CL_C2S3,2020.1.3,Win32,60,,,,,i,0,0.91872,2,media/dknb.png,2,"[-1,1,-1]",5,0,Symb,u,RT,0,0,48,1,2,99,99,i,0.91872,0,2,48,0,48,0,1,,,,,
,,,,,,,,,,,,,,,,,,,,1,2,2021-01-05_15h18.54.464,CL_C2S3,2020.1.3,Win32,60,,,,,u,1,0.663805,0,media/dcnb.png,1,"[1,-1,-1]",0,0,Symb,u,RT,0,0,49,1,2,99,99,u,0.663805,1,2,49,0,49,0,1,,,,,
,,,,,,,,,,,,,,,,,,,,1,2,2021-01-05_15h18.54.464,CL_C2S3,2020.1.3,Win32,60,,,,,i,1,0.555685,2,media/dknb.png,1,"[1,-1,-1]",2,0,Symb,i,RT,0,0,50,1,2,99,99,i,0.555685,1,2,50,0,50,0,1,,,,,
,,,,,,,,,,,,,,,,,,,,1,2,2021-01-05_15h18.54.464,CL_C2S3,2020.1.3,Win32,60,,,,,u,1,0.652785,0,media/dcnb.png,1,"[1,-1,-1]",0,0,Symb,u,RT,0,0,51,1,2,99,99,u,0.652785,1,2,51,0,51,0,1,,,,,
,,,,,,,,,,,,,,,,,,,,1,2,2021-01-05_15h18.54.464,CL_C2S3,2020.1.3,Win32,60,,,,,h,1,0.619385,0,media/dcnb.png,2,"[-1,1,-1]",3,0,Symb,h,RT,0,0,52,1,2,99,99,h,0.619385,1,2,52,0,52,0,1,,,,,
,,,,,,,,,,,,,,,,,,,,1,2,2021-01-05_15h18.54.464,CL_C2S3,2020.1.3,Win32,60,,,,,u,1,0.77949,2,media/dknb.png,2,"[-1,1,-1]",5,0,Symb,u,RT,0,0,53,1,2,99,99,u,0.77949,1,2,53,0,53,0,1,,,,,
,,,,,,,,,,,,,,,,,,,,1,2,2021-01-05_15h18.54.464,CL_C2S3,2020.1.3,Win32,60,,,,,i,1,0.91587,1,media/dfnb.png,2,"[-1,1,-1]",4,1,Symb,i,RT,0,0,54,1,2,99,99,i,0.91587,1,2,54,0,54,0,1,,,,,
,,,,,,,,,,,,,,,,,,,,1,2,2021-01-05_15h18.54.464,CL_C2S3,2020.1.3,Win32,60,,,,,u,1,1.305075,0,media/dcnb.png,1,"[1,-1,-1]",0,0,Symb,u,RT,0,0,55,1,2,99,99,u,1.305075,1,2,55,0,55,0,1,,,,,
,,,,,,,,,,,,,,,,,,,,1,2,2021-01-05_15h18.54.464,CL_C2S3,2020.1.3,Win32,60,,,,,u,1,0.75038,2,media/dknb.png,2,"[-1,1,-1]",5,0,Symb,u,RT,0,0,56,1,2,99,99,u,0.75038,1,2,56,0,56,0,1,,,,,
,,,,,,,,,,,,,,,,,,,,1,2,2021-01-05_15h18.54.464,CL_C2S3,2020.1.3,Win32,60,,,,,i,1,0.646215,2,media/dknb.png,1,"[1,-1,-1]",2,0,Symb,i,RT,0,0,57,1,2,99,99,i,0.646215,1,2,57,0,57,0,1,,,,,
,,,,,,,,,,,,,,,,,,,,1,2,2021-01-05_15h18.54.464,CL_C2S3,2020.1.3,Win32,60,,,,,h,1,1.01945,0,media/dcnb.png,2,"[-1,1,-1]",3,0,Symb,h,RT,0,0,58,1,2,99,99,h,1.01945,1,2,58,0,58,0,1,,,,,
,,,,,,,,,,,,,,,,,,,,1,2,2021-01-05_15h18.54.464,CL_C2S3,2020.1.3,Win32,60,,,,,h,1,0.582045,1,media/dfnb.png,1,"[1,-1,-1]",1,1,Symb,h,RT,0,0,59,1,2,99,99,h,0.582045,1,2,59,0,59,0,1,,,,,
,,,,,,,,,,,,,,,,,,,,1,2,2021-01-05_15h18.54.464,CL_C2S3,2020.1.3,Win32,60,,,,,h,1,1.98656,0,media/dcnb.png,2,"[-1,1,-1]",3,0,Symb,h,RT,0,0,60,1,2,99,99,h,1.98656,1,2,60,0,60,0,1,,,,,
,,,,,,,,,,,,,,,,,,,,1,2,2021-01-05_15h18.54.464,CL_C2S3,2020.1.3,Win32,60,,,,,i,1,0.57904,2,media/dknb.png,1,"[1,-1,-1]",2,0,Symb,i,RT,0,0,61,1,2,99,99,i,0.57904,1,2,61,0,61,0,1,,,,,
,,,,,,,,,,,,,,,,,,,,1,2,2021-01-05_15h18.54.464,CL_C2S3,2020.1.3,Win32,60,,,,,u,1,1.252675,2,media/dknb.png,2,"[-1,1,-1]",5,0,Symb,u,RT,0,0,62,1,2,99,99,u,1.252675,1,2,62,0,62,0,1,,,,,
,,,,,,,,,,,,,,,,,,,,1,2,2021-01-05_15h18.54.464,CL_C2S3,2020.1.3,Win32,60,,,,,h,1,0.490645,1,media/dfnb.png,1,"[1,-1,-1]",1,1,Symb,h,RT,0,0,63,1,2,99,99,h,0.490645,1,2,63,0,63,0,1,,,,,
,,,,,,,,,,,,,,,,,,,,1,2,2021-01-05_15h18.54.464,CL_C2S3,2020.1.3,Win32,60,,,,,i,1,0.757955,2,media/dknb.png,1,"[1,-1,-1]",2,0,Symb,i,RT,0,0,64,1,2,99,99,i,0.757955,1,2,64,0,64,0,1,,,,,
,,,,,,,,,,,,,,,,,,,,1,2,2021-01-05_15h18.54.464,CL_C2S3,2020.1.3,Win32,60,,,,,i,1,1.135735,1,media/dfnb.png,2,"[-1,1,-1]",4,1,Symb,i,RT,0,0,65,1,2,99,99,i,1.135735,1,2,65,0,65,0,1,,,,,
,,,,,,,,,,,,,,,,,,,,1,2,2021-01-05_15h18.54.464,CL_C2S3,2020.1.3,Win32,60,,,,,h,0,1.42255,0,media/dcnb.png,1,"[1,-1,-1]",0,0,Symb,u,RT,0,0,66,1,2,99,99,h,1.42255,0,2,66,0,66,0,1,,,,,
,,,,,,,,,,,,,,,,,,,,1,2,2021-01-05_15h18.54.464,CL_C2S3,2020.1.3,Win32,60,,,,,u,1,0.52479,0,media/dcnb.png,1,"[1,-1,-1]",0,0,Symb,u,RT,0,0,67,1,2,99,99,u,0.52479,1,2,67,0,67,0,1,,,,,
,,,,,,,,,,,,,,,,,,,,1,2,2021-01-05_15h18.54.464,CL_C2S3,2020.1.3,Win32,60,,,,,u,1,0.78429,2,media/dknb.png,2,"[-1,1,-1]",5,0,Symb,u,RT,0,0,68,1,2,99,99,u,0.78429,1,2,68,0,68,0,1,,,,,
,,,,,,,,,,,,,,,,,,,,1,2,2021-01-05_15h18.54.464,CL_C2S3,2020.1.3,Win32,60,,,,,h,1,0.824255,1,media/dfnb.png,1,"[1,-1,-1]",1,1,Symb,h,RT,0,0,69,1,2,99,99,h,0.824255,1,2,69,0,69,0,1,,,,,
,,,,,,,,,,,,,,,,,,,,1,2,2021-01-05_15h18.54.464,CL_C2S3,2020.1.3,Win32,60,,,,,h,1,0.802195,0,media/dcnb.png,2,"[-1,1,-1]",3,0,Symb,h,RT,0,0,70,1,2,99,99,h,0.802195,1,2,70,0,70,0,1,,,,,
,,,,,,,,,,,,,,,,,,,,1,2,2021-01-05_15h18.54.464,CL_C2S3,2020.1.3,Win32,60,,,,,h,0,0.451635,1,media/dfnb.png,2,"[-1,1,-1]",4,1,Symb,i,RT,0,0,71,1,2,99,99,h,0.451635,0,2,71,0,71,0,1,,,,,
,,,,,,,,,,,,,,,,,,,,1,2,2021-01-05_15h18.54.464,CL_C2S3,2020.1.3,Win32,60,,,,,u,1,0.778885,2,media/dknb.png,2,"[-1,1,-1]",5,0,Symb,u,RT,0,0,72,1,2,99,99,u,0.778885,1,2,72,0,72,0,1,,,,,
,,,,,,,,,,,,,,,,,,,,1,2,2021-01-05_15h18.54.464,CL_C2S3,2020.1.3,Win32,60,,,,,i,1,0.4869,2,media/dknb.png,1,"[1,-1,-1]",2,0,Symb,i,RT,0,0,73,1,2,99,99,i,0.4869,1,2,73,0,73,0,1,,,,,
,,,,,,,,,,,,,,,,,,,,1,2,2021-01-05_15h18.54.464,CL_C2S3,2020.1.3,Win32,60,,,,,h,1,2.318235,0,media/dcnb.png,2,"[-1,1,-1]",3,0,Symb,h,RT,0,0,74,1,2,99,99,h,2.318235,1,2,74,0,74,0,1,,,,,
,,,,,,,,,,,,,,,,,,,,1,2,2021-01-05_15h18.54.464,CL_C2S3,2020.1.3,Win32,60,,,,,h,1,0.63869,1,media/dfnb.png,1,"[1,-1,-1]",1,1,Symb,h,RT,0,0,75,1,2,99,99,h,0.63869,1,2,75,0,75,0,1,,,,,
,,,,,,,,,,,,,,,,,,,,1,2,2021-01-05_15h18.54.464,CL_C2S3,2020.1.3,Win32,60,,,,,i,1,0.823355,1,media/dfnb.png,2,"[-1,1,-1]",4,1,Symb,i,RT,0,0,76,1,2,99,99,i,0.823355,1,2,76,0,76,0,1,,,,,
,,,,,,,,,,,,,,,,,,,,1,2,2021-01-05_15h18.54.464,CL_C2S3,2020.1.3,Win32,60,,,,,h,1,0.659635,1,media/dfnb.png,1,"[1,-1,-1]",1,1,Symb,h,RT,0,0,77,1,2,99,99,h,0.659635,1,2,77,0,77,0,1,,,,,
,,,,,,,,,,,,,,,,,,,,1,2,2021-01-05_15h18.54.464,CL_C2S3,2020.1.3,Win32,60,,,,,u,1,1.03364,0,media/dcnb.png,1,"[1,-1,-1]",0,0,Symb,u,RT,0,0,78,1,2,99,99,u,1.03364,1,2,78,0,78,0,1,,,,,
,,,,,,,,,,,,,,,,,,,,1,2,2021-01-05_15h18.54.464,CL_C2S3,2020.1.3,Win32,60,,,,,i,1,0.73528,2,media/dknb.png,1,"[1,-1,-1]",2,0,Symb,i,RT,0,0,79,1,2,99,99,i,0.73528,1,2,79,0,79,0,1,,,,,
,,,,,,,,,,,,,,,,,,,,1,2,2021-01-05_15h18.54.464,CL_C2S3,2020.1.3,Win32,60,,,,,h,0,0.56241,1,media/dfnb.png,2,"[-1,1,-1]",4,1,Symb,i,RT,0,0,80,1,2,99,99,h,0.56241,0,2,80,0,80,0,1,,,,,
,,,,,,,,,,,,,,,,,,,,1,2,2021-01-05_15h18.54.464,CL_C2S3,2020.1.3,Win32,60,,,,,u,1,1.216165,0,media/dcnb.png,1,"[1,-1,-1]",0,0,Symb,u,RT,0,0,81,1,2,99,99,u,1.216165,1,2,81,0,81,0,1,,,,,
,,,,,,,,,,,,,,,,,,,,1,2,2021-01-05_15h18.54.464,CL_C2S3,2020.1.3,Win32,60,,,,,h,1,0.801495,0,media/dcnb.png,2,"[-1,1,-1]",3,0,Symb,h,RT,0,0,82,1,2,99,99,h,0.801495,1,2,82,0,82,0,1,,,,,
,,,,,,,,,,,,,,,,,,,,1,2,2021-01-05_15h18.54.464,CL_C2S3,2020.1.3,Win32,60,,,,,u,1,0.678745,2,media/dknb.png,2,"[-1,1,-1]",5,0,Symb,u,RT,0,0,83,1,2,99,99,u,0.678745,1,2,83,0,83,0,1,,,,,
,,,,,,,,,,,,,,,,,,,,1,2,2021-01-05_15h18.54.464,CL_C2S3,2020.1.3,Win32,60,,,,,h,1,0.829185,0,media/dcnb.png,2,"[-1,1,-1]",3,0,Symb,h,RT,0,0,84,1,2,99,99,h,0.829185,1,2,84,0,84,0,1,,,,,
,,,,,,,,,,,,,,,,,,,,1,2,2021-01-05_15h18.54.464,CL_C2S3,2020.1.3,Win32,60,,,,,u,1,0.783575,2,media/dknb.png,2,"[-1,1,-1]",5,0,Symb,u,RT,0,0,85,1,2,99,99,u,0.783575,1,2,85,0,85,0,1,,,,,
,,,,,,,,,,,,,,,,,,,,1,2,2021-01-05_15h18.54.464,CL_C2S3,2020.1.3,Win32,60,,,,,i,1,0.58949,1,media/dfnb.png,2,"[-1,1,-1]",4,1,Symb,i,RT,0,0,86,1,2,99,99,i,0.58949,1,2,86,0,86,0,1,,,,,
,,,,,,,,,,,,,,,,,,,,1,2,2021-01-05_15h18.54.464,CL_C2S3,2020.1.3,Win32,60,,,,,i,1,0.507355,2,media/dknb.png,1,"[1,-1,-1]",2,0,Symb,i,RT,0,0,87,1,2,99,99,i,0.507355,1,2,87,0,87,0,1,,,,,
,,,,,,,,,,,,,,,,,,,,1,2,2021-01-05_15h18.54.464,CL_C2S3,2020.1.3,Win32,60,,,,,h,1,0.554295,1,media/dfnb.png,1,"[1,-1,-1]",1,1,Symb,h,RT,0,0,88,1,2,99,99,h,0.554295,1,2,88,0,88,0,1,,,,,
,,,,,,,,,,,,,,,,,,,,1,2,2021-01-05_15h18.54.464,CL_C2S3,2020.1.3,Win32,60,,,,,u,1,0.550645,0,media/dcnb.png,1,"[1,-1,-1]",0,0,Symb,u,RT,0,0,89,1,2,99,99,u,0.550645,1,2,89,0,89,0,1,,,,,
,,,,,,,,,,,,,,,,,,,,1,2,2021-01-05_15h18.54.464,CL_C2S3,2020.1.3,Win32,60,,,,,i,1,0.596565,1,media/dfnb.png,2,"[-1,1,-1]",4,1,Symb,i,RT,0,0,90,1,2,99,99,i,0.596565,1,2,90,0,90,0,1,,,,,
,,,,,,,,,,,,,,,,,,,,1,2,2021-01-05_15h18.54.464,CL_C2S3,2020.1.3,Win32,60,,,,,h,1,0.58309,1,media/dfnb.png,1,"[1,-1,-1]",1,1,Symb,h,RT,0,0,91,1,2,99,99,h,0.58309,1,2,91,0,91,0,1,,,,,
,,,,,,,,,,,,,,,,,,,,1,2,2021-01-05_15h18.54.464,CL_C2S3,2020.1.3,Win32,60,,,,,u,1,0.70681,0,media/dcnb.png,1,"[1,-1,-1]",0,0,Symb,u,RT,0,0,92,1,2,99,99,u,0.70681,1,2,92,0,92,0,1,,,,,
,,,,,,,,,,,,,,,,,,,,1,2,2021-01-05_15h18.54.464,CL_C2S3,2020.1.3,Win32,60,,,,,h,1,0.483785,0,media/dcnb.png,2,"[-1,1,-1]",3,0,Symb,h,RT,0,0,93,1,2,99,99,h,0.483785,1,2,93,0,93,0,1,,,,,
,,,,,,,,,,,,,,,,,,,,1,2,2021-01-05_15h18.54.464,CL_C2S3,2020.1.3,Win32,60,,,,,i,1,0.79477,1,media/dfnb.png,2,"[-1,1,-1]",4,1,Symb,i,RT,0,0,94,1,2,99,99,i,0.79477,1,2,94,0,94,0,1,,,,,
,,,,,,,,,,,,,,,,,,,,1,2,2021-01-05_15h18.54.464,CL_C2S3,2020.1.3,Win32,60,,,,,h,1,0.604265,1,media/dfnb.png,1,"[1,-1,-1]",1,1,Symb,h,RT,0,0,95,1,2,99,99,h,0.604265,1,2,95,0,95,0,1,,,,,
,,,,,,,,,,,,,,,,,,,,1,2,2021-01-05_15h18.54.464,CL_C2S3,2020.1.3,Win32,60,,,,,h,1,0.751595,0,media/dcnb.png,2,"[-1,1,-1]",3,0,Symb,h,RT,0,0,96,1,2,99,99,h,0.751595,1,2,96,0,96,0,1,,,,,
,,,,,,,,,,,,,,,,,,,,1,2,2021-01-05_15h18.54.464,CL_C2S3,2020.1.3,Win32,60,,,,,i,1,0.538905,2,media/dknb.png,1,"[1,-1,-1]",2,0,Symb,i,RT,0,0,97,1,2,99,99,i,0.538905,1,2,97,0,97,0,1,,,,,
,,,,,,,,,,,,,,,,,,,,1,2,2021-01-05_15h18.54.464,CL_C2S3,2020.1.3,Win32,60,,,,,i,1,0.46077,2,media/dknb.png,1,"[1,-1,-1]",2,0,Symb,i,RT,0,0,98,1,2,99,99,i,0.46077,1,2,98,0,98,0,1,,,,,
,,,,,,,,,,,,,,,,,,,,1,2,2021-01-05_15h18.54.464,CL_C2S3,2020.1.3,Win32,60,,,,,u,1,0.70782,0,media/dcnb.png,1,"[1,-1,-1]",0,0,Symb,u,RT,0,0,99,1,2,99,99,u,0.70782,1,2,99,0,99,0,1,,,,,
,,,,,,,,,,,,,,,,,,,,1,2,2021-01-05_15h18.54.464,CL_C2S3,2020.1.3,Win32,60,,,,,u,1,0.43376,2,media/dknb.png,2,"[-1,1,-1]",5,0,Symb,u,RT,0,0,100,1,2,99,99,u,0.43376,1,2,100,0,100,0,1,,,,,
,,,,,,,,,,,,,,,,,,,,1,2,2021-01-05_15h18.54.464,CL_C2S3,2020.1.3,Win32,60,,,,,u,1,0.984515,2,media/dknb.png,2,"[-1,1,-1]",5,0,Symb,u,RT,0,0,101,1,2,99,99,u,0.984515,1,2,101,0,101,0,1,,,,,
,,,,,,,,,,,,,,,,,,,,1,2,2021-01-05_15h18.54.464,CL_C2S3,2020.1.3,Win32,60,,,,,i,1,2.351955,2,media/dknb.png,1,"[1,-1,-1]",2,0,Symb,i,RT,0,0,102,1,2,99,99,i,2.351955,1,2,102,0,102,0,1,,,,,
,,,,,,,,,,,,,,,,,,,,1,2,2021-01-05_15h18.54.464,CL_C2S3,2020.1.3,Win32,60,,,,,i,1,2.222335,1,media/dfnb.png,2,"[-1,1,-1]",4,1,Symb,i,RT,0,0,103,1,2,99,99,i,2.222335,1,2,103,0,103,0,1,,,,,
,,,,,,,,,,,,,,,,,,,,1,2,2021-01-05_15h18.54.464,CL_C2S3,2020.1.3,Win32,60,,,,,i,1,0.500525,1,media/dfnb.png,2,"[-1,1,-1]",4,1,Symb,i,RT,0,0,104,1,2,99,99,i,0.500525,1,2,104,0,104,0,1,,,,,
,,,,,,,,,,,,,,,,,,,,1,2,2021-01-05_15h18.54.464,CL_C2S3,2020.1.3,Win32,60,,,,,u,1,1.661505,0,media/dcnb.png,1,"[1,-1,-1]",0,0,Symb,u,RT,0,0,105,1,2,99,99,u,1.661505,1,2,105,0,105,0,1,,,,,
,,,,,,,,,,,,,,,,,,,,1,2,2021-01-05_15h18.54.464,CL_C2S3,2020.1.3,Win32,60,,,,,h,1,0.96658,0,media/dcnb.png,2,"[-1,1,-1]",3,0,Symb,h,RT,0,0,106,1,2,99,99,h,0.96658,1,2,106,0,106,0,1,,,,,
,,,,,,,,,,,,,,,,,,,,1,2,2021-01-05_15h18.54.464,CL_C2S3,2020.1.3,Win32,60,,,,,h,1,1.68091,1,media/dfnb.png,1,"[1,-1,-1]",1,1,Symb,h,RT,0,0,107,1,2,99,99,h,1.68091,1,2,107,0,107,0,1,,,,,
,,,,,,,,,,,,,,,,,,,,1,2,2021-01-05_15h18.54.464,CL_C2S3,2020.1.3,Win32,60,,,,,h,1,1.558155,0,media/dcnb.png,2,"[-1,1,-1]",3,0,Symb,h,RT,0,0,108,1,2,99,99,h,1.558155,1,2,108,0,108,0,1,,,,,
,,,,,,,,,,,,,,,,,,,,1,2,2021-01-05_15h18.54.464,CL_C2S3,2020.1.3,Win32,60,,,,,h,1,1.45299,1,media/dfnb.png,1,"[1,-1,-1]",1,1,Symb,h,RT,0,0,109,1,2,99,99,h,1.45299,1,2,109,0,109,0,1,,,,,
,,,,,,,,,,,,,,,,,,,,1,2,2021-01-05_15h18.54.464,CL_C2S3,2020.1.3,Win32,60,,,,,i,1,0.71159,2,media/dknb.png,1,"[1,-1,-1]",2,0,Symb,i,RT,0,0,110,1,2,99,99,i,0.71159,1,2,110,0,110,0,1,,,,,
,,,,,,,,,,,,,,,,,,,,1,2,2021-01-05_15h18.54.464,CL_C2S3,2020.1.3,Win32,60,,,,,u,1,0.573195,2,media/dknb.png,2,"[-1,1,-1]",5,0,Symb,u,RT,0,0,111,1,2,99,99,u,0.573195,1,2,111,0,111,0,1,,,,,
,,,,,,,,,,,,,,,,,,,,1,2,2021-01-05_15h18.54.464,CL_C2S3,2020.1.3,Win32,60,,,,,u,1,0.83346,0,media/dcnb.png,1,"[1,-1,-1]",0,0,Symb,u,RT,0,0,112,1,2,99,99,u,0.83346,1,2,112,0,112,0,1,,,,,
,,,,,,,,,,,,,,,,,,,,1,2,2021-01-05_15h18.54.464,CL_C2S3,2020.1.3,Win32,60,,,,,i,0,0.79258,2,media/dknb.png,2,"[-1,1,-1]",5,0,Symb,u,RT,0,0,113,1,2,99,99,i,0.79258,0,2,113,0,113,0,1,,,,,
,,,,,,,,,,,,,,,,,,,,1,2,2021-01-05_15h18.54.464,CL_C2S3,2020.1.3,Win32,60,,,,,u,1,0.53444,2,media/dknb.png,2,"[-1,1,-1]",5,0,Symb,u,RT,0,0,114,1,2,99,99,u,0.53444,1,2,114,0,114,0,1,,,,,
,,,,,,,,,,,,,,,,,,,,1,2,2021-01-05_15h18.54.464,CL_C2S3,2020.1.3,Win32,60,,,,,h,1,1.133575,0,media/dcnb.png,2,"[-1,1,-1]",3,0,Symb,h,RT,0,0,115,1,2,99,99,h,1.133575,1,2,115,0,115,0,1,,,,,
,,,,,,,,,,,,,,,,,,,,1,2,2021-01-05_15h18.54.464,CL_C2S3,2020.1.3,Win32,60,,,,,i,1,0.5248,2,media/dknb.png,1,"[1,-1,-1]",2,0,Symb,i,RT,0,0,116,1,2,99,99,i,0.5248,1,2,116,0,116,0,1,,,,,
,,,,,,,,,,,,,,,,,,,,1,2,2021-01-05_15h18.54.464,CL_C2S3,2020.1.3,Win32,60,,,,,i,1,0.95852,1,media/dfnb.png,2,"[-1,1,-1]",4,1,Symb,i,RT,0,0,117,1,2,99,99,i,0.95852,1,2,117,0,117,0,1,,,,,
,,,,,,,,,,,,,,,,,,,,1,2,2021-01-05_15h18.54.464,CL_C2S3,2020.1.3,Win32,60,,,,,h,1,0.50886,1,media/dfnb.png,1,"[1,-1,-1]",1,1,Symb,h,RT,0,0,118,1,2,99,99,h,0.50886,1,2,118,0,118,0,1,,,,,
,,,,,,,,,,,,,,,,,,,,1,2,2021-01-05_15h18.54.464,CL_C2S3,2020.1.3,Win32,60,,,,,h,0,0.879765,0,media/dcnb.png,1,"[1,-1,-1]",0,0,Symb,u,RT,0,0,119,1,2,99,99,h,0.879765,0,2,119,0,119,0,1,,,,,
,,,,,,,,,,,,,,,,,,,,1,2,2021-01-05_15h18.54.464,CL_C2S3,2020.1.3,Win32,60,,,,,,,,,,,,,,,,,,,,,,,,,,,,,,,,,1,0,1,0,1
,,,,,,,,,,,,,,,,,,,,1,2,2021-01-05_15h18.54.464,CL_C2S3,2020.1.3,Win32,60,,,h,103.05534,i,1,0.60106,1,media/dfnb.png,2,"[-1,1,-1]",4,1,Symb,i,RT,0,0,0,1,3,99,99,i,0.60106,1,2,0,0,0,0,1,,,,,
,,,,,,,,,,,,,,,,,,,,1,2,2021-01-05_15h18.54.464,CL_C2S3,2020.1.3,Win32,60,,,,,u,1,0.750365,2,media/dknb.png,2,"[-1,1,-1]",5,0,Symb,u,RT,0,0,1,1,3,99,99,u,0.750365,1,2,1,0,1,0,1,,,,,
,,,,,,,,,,,,,,,,,,,,1,2,2021-01-05_15h18.54.464,CL_C2S3,2020.1.3,Win32,60,,,,,u,0,0.717115,0,media/dcnb.png,2,"[-1,1,-1]",3,0,Symb,h,RT,0,0,2,1,3,99,99,u,0.717115,0,2,2,0,2,0,1,,,,,
,,,,,,,,,,,,,,,,,,,,1,2,2021-01-05_15h18.54.464,CL_C2S3,2020.1.3,Win32,60,,,,,h,1,0.619995,1,media/dfnb.png,1,"[1,-1,-1]",1,1,Symb,h,RT,0,0,3,1,3,99,99,h,0.619995,1,2,3,0,3,0,1,,,,,
,,,,,,,,,,,,,,,,,,,,1,2,2021-01-05_15h18.54.464,CL_C2S3,2020.1.3,Win32,60,,,,,u,1,0.59584,2,media/dknb.png,2,"[-1,1,-1]",5,0,Symb,u,RT,0,0,4,1,3,99,99,u,0.59584,1,2,4,0,4,0,1,,,,,
,,,,,,,,,,,,,,,,,,,,1,2,2021-01-05_15h18.54.464,CL_C2S3,2020.1.3,Win32,60,,,,,h,1,0.568545,0,media/dcnb.png,2,"[-1,1,-1]",3,0,Symb,h,RT,0,0,5,1,3,99,99,h,0.568545,1,2,5,0,5,0,1,,,,,
,,,,,,,,,,,,,,,,,,,,1,2,2021-01-05_15h18.54.464,CL_C2S3,2020.1.3,Win32,60,,,,,i,1,0.743795,1,media/dfnb.png,2,"[-1,1,-1]",4,1,Symb,i,RT,0,0,6,1,3,99,99,i,0.743795,1,2,6,0,6,0,1,,,,,
,,,,,,,,,,,,,,,,,,,,1,2,2021-01-05_15h18.54.464,CL_C2S3,2020.1.3,Win32,60,,,,,u,1,0.95033,0,media/dcnb.png,1,"[1,-1,-1]",0,0,Symb,u,RT,0,0,7,1,3,99,99,u,0.95033,1,2,7,0,7,0,1,,,,,
,,,,,,,,,,,,,,,,,,,,1,2,2021-01-05_15h18.54.464,CL_C2S3,2020.1.3,Win32,60,,,,,i,1,0.808315,2,media/dknb.png,1,"[1,-1,-1]",2,0,Symb,i,RT,0,0,8,1,3,99,99,i,0.808315,1,2,8,0,8,0,1,,,,,
,,,,,,,,,,,,,,,,,,,,1,2,2021-01-05_15h18.54.464,CL_C2S3,2020.1.3,Win32,60,,,,,i,1,0.39988,2,media/dknb.png,1,"[1,-1,-1]",2,0,Symb,i,RT,0,0,9,1,3,99,99,i,0.39988,1,2,9,0,9,0,1,,,,,
,,,,,,,,,,,,,,,,,,,,1,2,2021-01-05_15h18.54.464,CL_C2S3,2020.1.3,Win32,60,,,,,h,1,0.950285,1,media/dfnb.png,1,"[1,-1,-1]",1,1,Symb,h,RT,0,0,10,1,3,99,99,h,0.950285,1,2,10,0,10,0,1,,,,,
,,,,,,,,,,,,,,,,,,,,1,2,2021-01-05_15h18.54.464,CL_C2S3,2020.1.3,Win32,60,,,,,h,0,1.86751,0,media/dcnb.png,1,"[1,-1,-1]",0,0,Symb,u,RT,0,0,11,1,3,99,99,h,1.86751,0,2,11,0,11,0,1,,,,,
,,,,,,,,,,,,,,,,,,,,1,2,2021-01-05_15h18.54.464,CL_C2S3,2020.1.3,Win32,60,,,,,u,1,0.553535,2,media/dknb.png,2,"[-1,1,-1]",5,0,Symb,u,RT,0,0,12,1,3,99,99,u,0.553535,1,2,12,0,12,0,1,,,,,
,,,,,,,,,,,,,,,,,,,,1,2,2021-01-05_15h18.54.464,CL_C2S3,2020.1.3,Win32,60,,,,,u,1,0.391685,0,media/dcnb.png,1,"[1,-1,-1]",0,0,Symb,u,RT,0,0,13,1,3,99,99,u,0.391685,1,2,13,0,13,0,1,,,,,
,,,,,,,,,,,,,,,,,,,,1,2,2021-01-05_15h18.54.464,CL_C2S3,2020.1.3,Win32,60,,,,,i,1,0.575135,1,media/dfnb.png,2,"[-1,1,-1]",4,1,Symb,i,RT,0,0,14,1,3,99,99,i,0.575135,1,2,14,0,14,0,1,,,,,
,,,,,,,,,,,,,,,,,,,,1,2,2021-01-05_15h18.54.464,CL_C2S3,2020.1.3,Win32,60,,,,,h,1,0.50295,1,media/dfnb.png,1,"[1,-1,-1]",1,1,Symb,h,RT,0,0,15,1,3,99,99,h,0.50295,1,2,15,0,15,0,1,,,,,
,,,,,,,,,,,,,,,,,,,,1,2,2021-01-05_15h18.54.464,CL_C2S3,2020.1.3,Win32,60,,,,,u,1,0.666825,0,media/dcnb.png,1,"[1,-1,-1]",0,0,Symb,u,RT,0,0,16,1,3,99,99,u,0.666825,1,2,16,0,16,0,1,,,,,
,,,,,,,,,,,,,,,,,,,,1,2,2021-01-05_15h18.54.464,CL_C2S3,2020.1.3,Win32,60,,,,,i,1,0.70412,2,media/dknb.png,1,"[1,-1,-1]",2,0,Symb,i,RT,0,0,17,1,3,99,99,i,0.70412,1,2,17,0,17,0,1,,,,,
,,,,,,,,,,,,,,,,,,,,1,2,2021-01-05_15h18.54.464,CL_C2S3,2020.1.3,Win32,60,,,,,i,1,0.500985,2,media/dknb.png,1,"[1,-1,-1]",2,0,Symb,i,RT,0,0,18,1,3,99,99,i,0.500985,1,2,18,0,18,0,1,,,,,
,,,,,,,,,,,,,,,,,,,,1,2,2021-01-05_15h18.54.464,CL_C2S3,2020.1.3,Win32,60,,,,,u,1,0.710615,2,media/dknb.png,2,"[-1,1,-1]",5,0,Symb,u,RT,0,0,19,1,3,99,99,u,0.710615,1,2,19,0,19,0,1,,,,,
,,,,,,,,,,,,,,,,,,,,1,2,2021-01-05_15h18.54.464,CL_C2S3,2020.1.3,Win32,60,,,,,h,1,0.58356,0,media/dcnb.png,2,"[-1,1,-1]",3,0,Symb,h,RT,0,0,20,1,3,99,99,h,0.58356,1,2,20,0,20,0,1,,,,,
,,,,,,,,,,,,,,,,,,,,1,2,2021-01-05_15h18.54.464,CL_C2S3,2020.1.3,Win32,60,,,,,i,0,1.36087,1,media/dfnb.png,1,"[1,-1,-1]",1,1,Symb,h,RT,0,0,21,1,3,99,99,i,1.36087,0,2,21,0,21,0,1,,,,,
,,,,,,,,,,,,,,,,,,,,1,2,2021-01-05_15h18.54.464,CL_C2S3,2020.1.3,Win32,60,,,,,h,1,1.885765,0,media/dcnb.png,2,"[-1,1,-1]",3,0,Symb,h,RT,0,0,22,1,3,99,99,h,1.885765,1,2,22,0,22,0,1,,,,,
,,,,,,,,,,,,,,,,,,,,1,2,2021-01-05_15h18.54.464,CL_C2S3,2020.1.3,Win32,60,,,,,u,0,0.67365,1,media/dfnb.png,2,"[-1,1,-1]",4,1,Symb,i,RT,0,0,23,1,3,99,99,u,0.67365,0,2,23,0,23,0,1,,,,,
,,,,,,,,,,,,,,,,,,,,1,2,2021-01-05_15h18.54.464,CL_C2S3,2020.1.3,Win32,60,,,,,h,0,0.89522,0,media/dcnb.png,1,"[1,-1,-1]",0,0,Symb,u,RT,0,0,24,1,3,99,99,h,0.89522,0,2,24,0,24,0,1,,,,,
,,,,,,,,,,,,,,,,,,,,1,2,2021-01-05_15h18.54.464,CL_C2S3,2020.1.3,Win32,60,,,,,i,1,0.71659,2,media/dknb.png,1,"[1,-1,-1]",2,0,Symb,i,RT,0,0,25,1,3,99,99,i,0.71659,1,2,25,0,25,0,1,,,,,
,,,,,,,,,,,,,,,,,,,,1,2,2021-01-05_15h18.54.464,CL_C2S3,2020.1.3,Win32,60,,,,,h,1,0.730195,1,media/dfnb.png,1,"[1,-1,-1]",1,1,Symb,h,RT,0,0,26,1,3,99,99,h,0.730195,1,2,26,0,26,0,1,,,,,
,,,,,,,,,,,,,,,,,,,,1,2,2021-01-05_15h18.54.464,CL_C2S3,2020.1.3,Win32,60,,,,,h,1,0.824055,0,media/dcnb.png,2,"[-1,1,-1]",3,0,Symb,h,RT,0,0,27,1,3,99,99,h,0.824055,1,2,27,0,27,0,1,,,,,
,,,,,,,,,,,,,,,,,,,,1,2,2021-01-05_15h18.54.464,CL_C2S3,2020.1.3,Win32,60,,,,,u,1,1.196695,2,media/dknb.png,2,"[-1,1,-1]",5,0,Symb,u,RT,0,0,28,1,3,99,99,u,1.196695,1,2,28,0,28,0,1,,,,,
,,,,,,,,,,,,,,,,,,,,1,2,2021-01-05_15h18.54.464,CL_C2S3,2020.1.3,Win32,60,,,,,i,1,0.688485,1,media/dfnb.png,2,"[-1,1,-1]",4,1,Symb,i,RT,0,0,29,1,3,99,99,i,0.688485,1,2,29,0,29,0,1,,,,,
,,,,,,,,,,,,,,,,,,,,1,2,2021-01-05_15h18.54.464,CL_C2S3,2020.1.3,Win32,60,,,,,u,1,0.92065,0,media/dcnb.png,1,"[1,-1,-1]",0,0,Symb,u,RT,0,0,30,1,3,99,99,u,0.92065,1,2,30,0,30,0,1,,,,,
,,,,,,,,,,,,,,,,,,,,1,2,2021-01-05_15h18.54.464,CL_C2S3,2020.1.3,Win32,60,,,,,i,0,0.679725,1,media/dfnb.png,1,"[1,-1,-1]",1,1,Symb,h,RT,0,0,31,1,3,99,99,i,0.679725,0,2,31,0,31,0,1,,,,,
,,,,,,,,,,,,,,,,,,,,1,2,2021-01-05_15h18.54.464,CL_C2S3,2020.1.3,Win32,60,,,,,i,1,0.79007,2,media/dknb.png,1,"[1,-1,-1]",2,0,Symb,i,RT,0,0,32,1,3,99,99,i,0.79007,1,2,32,0,32,0,1,,,,,
,,,,,,,,,,,,,,,,,,,,1,2,2021-01-05_15h18.54.464,CL_C2S3,2020.1.3,Win32,60,,,,,h,1,0.579865,0,media/dcnb.png,2,"[-1,1,-1]",3,0,Symb,h,RT,0,0,33,1,3,99,99,h,0.579865,1,2,33,0,33,0,1,,,,,
,,,,,,,,,,,,,,,,,,,,1,2,2021-01-05_15h18.54.464,CL_C2S3,2020.1.3,Win32,60,,,,,i,1,0.67965,1,media/dfnb.png,2,"[-1,1,-1]",4,1,Symb,i,RT,0,0,34,1,3,99,99,i,0.67965,1,2,34,0,34,0,1,,,,,
,,,,,,,,,,,,,,,,,,,,1,2,2021-01-05_15h18.54.464,CL_C2S3,2020.1.3,Win32,60,,,,,u,1,0.769045,0,media/dcnb.png,1,"[1,-1,-1]",0,0,Symb,u,RT,0,0,35,1,3,99,99,u,0.769045,1,2,35,0,35,0,1,,,,,
,,,,,,,,,,,,,,,,,,,,1,2,2021-01-05_15h18.54.464,CL_C2S3,2020.1.3,Win32,60,,,,,i,1,0.60121,1,media/dfnb.png,2,"[-1,1,-1]",4,1,Symb,i,RT,0,0,36,1,3,99,99,i,0.60121,1,2,36,0,36,0,1,,,,,
,,,,,,,,,,,,,,,,,,,,1,2,2021-01-05_15h18.54.464,CL_C2S3,2020.1.3,Win32,60,,,,,u,1,0.72632,2,media/dknb.png,2,"[-1,1,-1]",5,0,Symb,u,RT,0,0,37,1,3,99,99,u,0.72632,1,2,37,0,37,0,1,,,,,
,,,,,,,,,,,,,,,,,,,,1,2,2021-01-05_15h18.54.464,CL_C2S3,2020.1.3,Win32,60,,,,,h,1,0.46012,1,media/dfnb.png,1,"[1,-1,-1]",1,1,Symb,h,RT,0,0,38,1,3,99,99,h,0.46012,1,2,38,0,38,0,1,,,,,
,,,,,,,,,,,,,,,,,,,,1,2,2021-01-05_15h18.54.464,CL_C2S3,2020.1.3,Win32,60,,,,,i,1,0.64414,2,media/dknb.png,1,"[1,-1,-1]",2,0,Symb,i,RT,0,0,39,1,3,99,99,i,0.64414,1,2,39,0,39,0,1,,,,,
,,,,,,,,,,,,,,,,,,,,1,2,2021-01-05_15h18.54.464,CL_C2S3,2020.1.3,Win32,60,,,,,u,1,0.4227,2,media/dknb.png,2,"[-1,1,-1]",5,0,Symb,u,RT,0,0,40,1,3,99,99,u,0.4227,1,2,40,0,40,0,1,,,,,
,,,,,,,,,,,,,,,,,,,,1,2,2021-01-05_15h18.54.464,CL_C2S3,2020.1.3,Win32,60,,,,,h,1,0.49565,0,media/dcnb.png,2,"[-1,1,-1]",3,0,Symb,h,RT,0,0,41,1,3,99,99,h,0.49565,1,2,41,0,41,0,1,,,,,
,,,,,,,,,,,,,,,,,,,,1,2,2021-01-05_15h18.54.464,CL_C2S3,2020.1.3,Win32,60,,,,,u,1,0.439725,0,media/dcnb.png,1,"[1,-1,-1]",0,0,Symb,u,RT,0,0,42,1,3,99,99,u,0.439725,1,2,42,0,42,0,1,,,,,
,,,,,,,,,,,,,,,,,,,,1,2,2021-01-05_15h18.54.464,CL_C2S3,2020.1.3,Win32,60,,,,,i,1,0.486605,2,media/dknb.png,1,"[1,-1,-1]",2,0,Symb,i,RT,0,0,43,1,3,99,99,i,0.486605,1,2,43,0,43,0,1,,,,,
,,,,,,,,,,,,,,,,,,,,1,2,2021-01-05_15h18.54.464,CL_C2S3,2020.1.3,Win32,60,,,,,i,1,0.401395,1,media/dfnb.png,2,"[-1,1,-1]",4,1,Symb,i,RT,0,0,44,1,3,99,99,i,0.401395,1,2,44,0,44,0,1,,,,,
,,,,,,,,,,,,,,,,,,,,1,2,2021-01-05_15h18.54.464,CL_C2S3,2020.1.3,Win32,60,,,,,i,1,0.471,1,media/dfnb.png,2,"[-1,1,-1]",4,1,Symb,i,RT,0,0,45,1,3,99,99,i,0.471,1,2,45,0,45,0,1,,,,,
,,,,,,,,,,,,,,,,,,,,1,2,2021-01-05_15h18.54.464,CL_C2S3,2020.1.3,Win32,60,,,,,u,1,0.50905,2,media/dknb.png,2,"[-1,1,-1]",5,0,Symb,u,RT,0,0,46,1,3,99,99,u,0.50905,1,2,46,0,46,0,1,,,,,
,,,,,,,,,,,,,,,,,,,,1,2,2021-01-05_15h18.54.464,CL_C2S3,2020.1.3,Win32,60,,,,,u,1,0.44059,2,media/dknb.png,2,"[-1,1,-1]",5,0,Symb,u,RT,0,0,47,1,3,99,99,u,0.44059,1,2,47,0,47,0,1,,,,,
,,,,,,,,,,,,,,,,,,,,1,2,2021-01-05_15h18.54.464,CL_C2S3,2020.1.3,Win32,60,,,,,h,1,0.450265,1,media/dfnb.png,1,"[1,-1,-1]",1,1,Symb,h,RT,0,0,48,1,3,99,99,h,0.450265,1,2,48,0,48,0,1,,,,,
,,,,,,,,,,,,,,,,,,,,1,2,2021-01-05_15h18.54.464,CL_C2S3,2020.1.3,Win32,60,,,,,h,1,0.792785,0,media/dcnb.png,2,"[-1,1,-1]",3,0,Symb,h,RT,0,0,49,1,3,99,99,h,0.792785,1,2,49,0,49,0,1,,,,,
,,,,,,,,,,,,,,,,,,,,1,2,2021-01-05_15h18.54.464,CL_C2S3,2020.1.3,Win32,60,,,,,i,1,0.6709,2,media/dknb.png,1,"[1,-1,-1]",2,0,Symb,i,RT,0,0,50,1,3,99,99,i,0.6709,1,2,50,0,50,0,1,,,,,
,,,,,,,,,,,,,,,,,,,,1,2,2021-01-05_15h18.54.464,CL_C2S3,2020.1.3,Win32,60,,,,,h,1,0.78497,1,media/dfnb.png,1,"[1,-1,-1]",1,1,Symb,h,RT,0,0,51,1,3,99,99,h,0.78497,1,2,51,0,51,0,1,,,,,
,,,,,,,,,,,,,,,,,,,,1,2,2021-01-05_15h18.54.464,CL_C2S3,2020.1.3,Win32,60,,,,,h,1,1.873045,0,media/dcnb.png,2,"[-1,1,-1]",3,0,Symb,h,RT,0,0,52,1,3,99,99,h,1.873045,1,2,52,0,52,0,1,,,,,
,,,,,,,,,,,,,,,,,,,,1,2,2021-01-05_15h18.54.464,CL_C2S3,2020.1.3,Win32,60,,,,,u,1,0.572935,0,media/dcnb.png,1,"[1,-1,-1]",0,0,Symb,u,RT,0,0,53,1,3,99,99,u,0.572935,1,2,53,0,53,0,1,,,,,
,,,,,,,,,,,,,,,,,,,,1,2,2021-01-05_15h18.54.464,CL_C2S3,2020.1.3,Win32,60,,,,,u,1,0.457985,0,media/dcnb.png,1,"[1,-1,-1]",0,0,Symb,u,RT,0,0,54,1,3,99,99,u,0.457985,1,2,54,0,54,0,1,,,,,
,,,,,,,,,,,,,,,,,,,,1,2,2021-01-05_15h18.54.464,CL_C2S3,2020.1.3,Win32,60,,,,,u,1,1.489015,2,media/dknb.png,2,"[-1,1,-1]",5,0,Symb,u,RT,0,0,55,1,3,99,99,u,1.489015,1,2,55,0,55,0,1,,,,,
,,,,,,,,,,,,,,,,,,,,1,2,2021-01-05_15h18.54.464,CL_C2S3,2020.1.3,Win32,60,,,,,h,1,0.635795,1,media/dfnb.png,1,"[1,-1,-1]",1,1,Symb,h,RT,0,0,56,1,3,99,99,h,0.635795,1,2,56,0,56,0,1,,,,,
,,,,,,,,,,,,,,,,,,,,1,2,2021-01-05_15h18.54.464,CL_C2S3,2020.1.3,Win32,60,,,,,u,0,0.634105,2,media/dknb.png,1,"[1,-1,-1]",2,0,Symb,i,RT,0,0,57,1,3,99,99,u,0.634105,0,2,57,0,57,0,1,,,,,
,,,,,,,,,,,,,,,,,,,,1,2,2021-01-05_15h18.54.464,CL_C2S3,2020.1.3,Win32,60,,,,,h,1,0.709645,0,media/dcnb.png,2,"[-1,1,-1]",3,0,Symb,h,RT,0,0,58,1,3,99,99,h,0.709645,1,2,58,0,58,0,1,,,,,
,,,,,,,,,,,,,,,,,,,,1,2,2021-01-05_15h18.54.464,CL_C2S3,2020.1.3,Win32,60,,,,,i,1,1.03732,1,media/dfnb.png,2,"[-1,1,-1]",4,1,Symb,i,RT,0,0,59,1,3,99,99,i,1.03732,1,2,59,0,59,0,1,,,,,
,,,,,,,,,,,,,,,,,,,,1,2,2021-01-05_15h18.54.464,CL_C2S3,2020.1.3,Win32,60,,,,,u,1,1.03447,2,media/dknb.png,2,"[-1,1,-1]",5,0,Symb,u,RT,0,0,60,1,3,99,99,u,1.03447,1,2,60,0,60,0,1,,,,,
,,,,,,,,,,,,,,,,,,,,1,2,2021-01-05_15h18.54.464,CL_C2S3,2020.1.3,Win32,60,,,,,h,1,0.65802,1,media/dfnb.png,1,"[1,-1,-1]",1,1,Symb,h,RT,0,0,61,1,3,99,99,h,0.65802,1,2,61,0,61,0,1,,,,,
,,,,,,,,,,,,,,,,,,,,1,2,2021-01-05_15h18.54.464,CL_C2S3,2020.1.3,Win32,60,,,,,u,1,1.225195,2,media/dknb.png,2,"[-1,1,-1]",5,0,Symb,u,RT,0,0,62,1,3,99,99,u,1.225195,1,2,62,0,62,0,1,,,,,
,,,,,,,,,,,,,,,,,,,,1,2,2021-01-05_15h18.54.464,CL_C2S3,2020.1.3,Win32,60,,,,,h,1,0.551145,0,media/dcnb.png,2,"[-1,1,-1]",3,0,Symb,h,RT,0,0,63,1,3,99,99,h,0.551145,1,2,63,0,63,0,1,,,,,
,,,,,,,,,,,,,,,,,,,,1,2,2021-01-05_15h18.54.464,CL_C2S3,2020.1.3,Win32,60,,,,,i,1,0.577665,2,media/dknb.png,1,"[1,-1,-1]",2,0,Symb,i,RT,0,0,64,1,3,99,99,i,0.577665,1,2,64,0,64,0,1,,,,,
,,,,,,,,,,,,,,,,,,,,1,2,2021-01-05_15h18.54.464,CL_C2S3,2020.1.3,Win32,60,,,,,h,1,1.33765,0,media/dcnb.png,2,"[-1,1,-1]",3,0,Symb,h,RT,0,0,65,1,3,99,99,h,1.33765,1,2,65,0,65,0,1,,,,,
,,,,,,,,,,,,,,,,,,,,1,2,2021-01-05_15h18.54.464,CL_C2S3,2020.1.3,Win32,60,,,,,h,1,0.614255,1,media/dfnb.png,1,"[1,-1,-1]",1,1,Symb,h,RT,0,0,66,1,3,99,99,h,0.614255,1,2,66,0,66,0,1,,,,,
,,,,,,,,,,,,,,,,,,,,1,2,2021-01-05_15h18.54.464,CL_C2S3,2020.1.3,Win32,60,,,,,u,1,0.72685,0,media/dcnb.png,1,"[1,-1,-1]",0,0,Symb,u,RT,0,0,67,1,3,99,99,u,0.72685,1,2,67,0,67,0,1,,,,,
,,,,,,,,,,,,,,,,,,,,1,2,2021-01-05_15h18.54.464,CL_C2S3,2020.1.3,Win32,60,,,,,i,1,0.5539,1,media/dfnb.png,2,"[-1,1,-1]",4,1,Symb,i,RT,0,0,68,1,3,99,99,i,0.5539,1,2,68,0,68,0,1,,,,,
,,,,,,,,,,,,,,,,,,,,1,2,2021-01-05_15h18.54.464,CL_C2S3,2020.1.3,Win32,60,,,,,u,1,0.857725,0,media/dcnb.png,1,"[1,-1,-1]",0,0,Symb,u,RT,0,0,69,1,3,99,99,u,0.857725,1,2,69,0,69,0,1,,,,,
,,,,,,,,,,,,,,,,,,,,1,2,2021-01-05_15h18.54.464,CL_C2S3,2020.1.3,Win32,60,,,,,h,0,0.57118,1,media/dfnb.png,2,"[-1,1,-1]",4,1,Symb,i,RT,0,0,70,1,3,99,99,h,0.57118,0,2,70,0,70,0,1,,,,,
,,,,,,,,,,,,,,,,,,,,1,2,2021-01-05_15h18.54.464,CL_C2S3,2020.1.3,Win32,60,,,,,i,1,1.184135,2,media/dknb.png,1,"[1,-1,-1]",2,0,Symb,i,RT,0,0,71,1,3,99,99,i,1.184135,1,2,71,0,71,0,1,,,,,
,,,,,,,,,,,,,,,,,,,,1,2,2021-01-05_15h18.54.464,CL_C2S3,2020.1.3,Win32,60,,,,,h,1,0.524515,0,media/dcnb.png,2,"[-1,1,-1]",3,0,Symb,h,RT,0,0,72,1,3,99,99,h,0.524515,1,2,72,0,72,0,1,,,,,
,,,,,,,,,,,,,,,,,,,,1,2,2021-01-05_15h18.54.464,CL_C2S3,2020.1.3,Win32,60,,,,,i,1,1.236435,1,media/dfnb.png,2,"[-1,1,-1]",4,1,Symb,i,RT,0,0,73,1,3,99,99,i,1.236435,1,2,73,0,73,0,1,,,,,
,,,,,,,,,,,,,,,,,,,,1,2,2021-01-05_15h18.54.464,CL_C2S3,2020.1.3,Win32,60,,,,,h,1,1.90575,1,media/dfnb.png,1,"[1,-1,-1]",1,1,Symb,h,RT,0,0,74,1,3,99,99,h,1.90575,1,2,74,0,74,0,1,,,,,
,,,,,,,,,,,,,,,,,,,,1,2,2021-01-05_15h18.54.464,CL_C2S3,2020.1.3,Win32,60,,,,,i,1,0.666955,1,media/dfnb.png,2,"[-1,1,-1]",4,1,Symb,i,RT,0,0,75,1,3,99,99,i,0.666955,1,2,75,0,75,0,1,,,,,
,,,,,,,,,,,,,,,,,,,,1,2,2021-01-05_15h18.54.464,CL_C2S3,2020.1.3,Win32,60,,,,,u,1,0.835915,2,media/dknb.png,2,"[-1,1,-1]",5,0,Symb,u,RT,0,0,76,1,3,99,99,u,0.835915,1,2,76,0,76,0,1,,,,,
,,,,,,,,,,,,,,,,,,,,1,2,2021-01-05_15h18.54.464,CL_C2S3,2020.1.3,Win32,60,,,,,h,1,0.72466,1,media/dfnb.png,1,"[1,-1,-1]",1,1,Symb,h,RT,0,0,77,1,3,99,99,h,0.72466,1,2,77,0,77,0,1,,,,,
,,,,,,,,,,,,,,,,,,,,1,2,2021-01-05_15h18.54.464,CL_C2S3,2020.1.3,Win32,60,,,,,u,1,0.83852,0,media/dcnb.png,1,"[1,-1,-1]",0,0,Symb,u,RT,0,0,78,1,3,99,99,u,0.83852,1,2,78,0,78,0,1,,,,,
,,,,,,,,,,,,,,,,,,,,1,2,2021-01-05_15h18.54.464,CL_C2S3,2020.1.3,Win32,60,,,,,i,1,0.953365,2,media/dknb.png,1,"[1,-1,-1]",2,0,Symb,i,RT,0,0,79,1,3,99,99,i,0.953365,1,2,79,0,79,0,1,,,,,
,,,,,,,,,,,,,,,,,,,,1,2,2021-01-05_15h18.54.464,CL_C2S3,2020.1.3,Win32,60,,,,,i,1,0.45118,2,media/dknb.png,1,"[1,-1,-1]",2,0,Symb,i,RT,0,0,80,1,3,99,99,i,0.45118,1,2,80,0,80,0,1,,,,,
,,,,,,,,,,,,,,,,,,,,1,2,2021-01-05_15h18.54.464,CL_C2S3,2020.1.3,Win32,60,,,,,u,1,1.346915,0,media/dcnb.png,1,"[1,-1,-1]",0,0,Symb,u,RT,0,0,81,1,3,99,99,u,1.346915,1,2,81,0,81,0,1,,,,,
,,,,,,,,,,,,,,,,,,,,1,2,2021-01-05_15h18.54.464,CL_C2S3,2020.1.3,Win32,60,,,,,h,1,1.574785,0,media/dcnb.png,2,"[-1,1,-1]",3,0,Symb,h,RT,0,0,82,1,3,99,99,h,1.574785,1,2,82,0,82,0,1,,,,,
,,,,,,,,,,,,,,,,,,,,1,2,2021-01-05_15h18.54.464,CL_C2S3,2020.1.3,Win32,60,,,,,i,0,0.833365,2,media/dknb.png,2,"[-1,1,-1]",5,0,Symb,u,RT,0,0,83,1,3,99,99,i,0.833365,0,2,83,0,83,0,1,,,,,
,,,,,,,,,,,,,,,,,,,,1,2,2021-01-05_15h18.54.464,CL_C2S3,2020.1.3,Win32,60,,,,,u,1,0.665595,0,media/dcnb.png,1,"[1,-1,-1]",0,0,Symb,u,RT,0,0,84,1,3,99,99,u,0.665595,1,2,84,0,84,0,1,,,,,
,,,,,,,,,,,,,,,,,,,,1,2,2021-01-05_15h18.54.464,CL_C2S3,2020.1.3,Win32,60,,,,,h,1,0.79428,1,media/dfnb.png,1,"[1,-1,-1]",1,1,Symb,h,RT,0,0,85,1,3,99,99,h,0.79428,1,2,85,0,85,0,1,,,,,
,,,,,,,,,,,,,,,,,,,,1,2,2021-01-05_15h18.54.464,CL_C2S3,2020.1.3,Win32,60,,,,,u,1,0.66681,2,media/dknb.png,2,"[-1,1,-1]",5,0,Symb,u,RT,0,0,86,1,3,99,99,u,0.66681,1,2,86,0,86,0,1,,,,,
,,,,,,,,,,,,,,,,,,,,1,2,2021-01-05_15h18.54.464,CL_C2S3,2020.1.3,Win32,60,,,,,i,1,0.6724,1,media/dfnb.png,2,"[-1,1,-1]",4,1,Symb,i,RT,0,0,87,1,3,99,99,i,0.6724,1,2,87,0,87,0,1,,,,,
,,,,,,,,,,,,,,,,,,,,1,2,2021-01-05_15h18.54.464,CL_C2S3,2020.1.3,Win32,60,,,,,h,1,0.62049,0,media/dcnb.png,2,"[-1,1,-1]",3,0,Symb,h,RT,0,0,88,1,3,99,99,h,0.62049,1,2,88,0,88,0,1,,,,,
,,,,,,,,,,,,,,,,,,,,1,2,2021-01-05_15h18.54.464,CL_C2S3,2020.1.3,Win32,60,,,,,i,1,0.600915,2,media/dknb.png,1,"[1,-1,-1]",2,0,Symb,i,RT,0,0,89,1,3,99,99,i,0.600915,1,2,89,0,89,0,1,,,,,
,,,,,,,,,,,,,,,,,,,,1,2,2021-01-05_15h18.54.464,CL_C2S3,2020.1.3,Win32,60,,,,,u,1,0.73742,2,media/dknb.png,2,"[-1,1,-1]",5,0,Symb,u,RT,0,0,90,1,3,99,99,u,0.73742,1,2,90,0,90,0,1,,,,,
,,,,,,,,,,,,,,,,,,,,1,2,2021-01-05_15h18.54.464,CL_C2S3,2020.1.3,Win32,60,,,,,h,0,1.97347,0,media/dcnb.png,1,"[1,-1,-1]",0,0,Symb,u,RT,0,0,91,1,3,99,99,h,1.97347,0,2,91,0,91,0,1,,,,,
,,,,,,,,,,,,,,,,,,,,1,2,2021-01-05_15h18.54.464,CL_C2S3,2020.1.3,Win32,60,,,,,h,1,2.28583,0,media/dcnb.png,2,"[-1,1,-1]",3,0,Symb,h,RT,0,0,92,1,3,99,99,h,2.28583,1,2,92,0,92,0,1,,,,,
,,,,,,,,,,,,,,,,,,,,1,2,2021-01-05_15h18.54.464,CL_C2S3,2020.1.3,Win32,60,,,,,i,1,0.71706,2,media/dknb.png,1,"[1,-1,-1]",2,0,Symb,i,RT,0,0,93,1,3,99,99,i,0.71706,1,2,93,0,93,0,1,,,,,
,,,,,,,,,,,,,,,,,,,,1,2,2021-01-05_15h18.54.464,CL_C2S3,2020.1.3,Win32,60,,,,,h,1,1.144375,1,media/dfnb.png,1,"[1,-1,-1]",1,1,Symb,h,RT,0,0,94,1,3,99,99,h,1.144375,1,2,94,0,94,0,1,,,,,
,,,,,,,,,,,,,,,,,,,,1,2,2021-01-05_15h18.54.464,CL_C2S3,2020.1.3,Win32,60,,,,,u,0,0.854235,0,media/dcnb.png,2,"[-1,1,-1]",3,0,Symb,h,RT,0,0,95,1,3,99,99,u,0.854235,0,2,95,0,95,0,1,,,,,
,,,,,,,,,,,,,,,,,,,,1,2,2021-01-05_15h18.54.464,CL_C2S3,2020.1.3,Win32,60,,,,,u,1,0.535435,0,media/dcnb.png,1,"[1,-1,-1]",0,0,Symb,u,RT,0,0,96,1,3,99,99,u,0.535435,1,2,96,0,96,0,1,,,,,
,,,,,,,,,,,,,,,,,,,,1,2,2021-01-05_15h18.54.464,CL_C2S3,2020.1.3,Win32,60,,,,,h,0,0.655405,1,media/dfnb.png,2,"[-1,1,-1]",4,1,Symb,i,RT,0,0,97,1,3,99,99,h,0.655405,0,2,97,0,97,0,1,,,,,
,,,,,,,,,,,,,,,,,,,,1,2,2021-01-05_15h18.54.464,CL_C2S3,2020.1.3,Win32,60,,,,,h,1,0.752145,1,media/dfnb.png,1,"[1,-1,-1]",1,1,Symb,h,RT,0,0,98,1,3,99,99,h,0.752145,1,2,98,0,98,0,1,,,,,
,,,,,,,,,,,,,,,,,,,,1,2,2021-01-05_15h18.54.464,CL_C2S3,2020.1.3,Win32,60,,,,,i,1,0.550295,1,media/dfnb.png,2,"[-1,1,-1]",4,1,Symb,i,RT,0,0,99,1,3,99,99,i,0.550295,1,2,99,0,99,0,1,,,,,
,,,,,,,,,,,,,,,,,,,,1,2,2021-01-05_15h18.54.464,CL_C2S3,2020.1.3,Win32,60,,,,,i,1,1.733635,2,media/dknb.png,1,"[1,-1,-1]",2,0,Symb,i,RT,0,0,100,1,3,99,99,i,1.733635,1,2,100,0,100,0,1,,,,,
,,,,,,,,,,,,,,,,,,,,1,2,2021-01-05_15h18.54.464,CL_C2S3,2020.1.3,Win32,60,,,,,u,1,0.819245,2,media/dknb.png,2,"[-1,1,-1]",5,0,Symb,u,RT,0,0,101,1,3,99,99,u,0.819245,1,2,101,0,101,0,1,,,,,
,,,,,,,,,,,,,,,,,,,,1,2,2021-01-05_15h18.54.464,CL_C2S3,2020.1.3,Win32,60,,,,,i,1,1.38347,1,media/dfnb.png,2,"[-1,1,-1]",4,1,Symb,i,RT,0,0,102,1,3,99,99,i,1.38347,1,2,102,0,102,0,1,,,,,
,,,,,,,,,,,,,,,,,,,,1,2,2021-01-05_15h18.54.464,CL_C2S3,2020.1.3,Win32,60,,,,,u,1,0.730045,0,media/dcnb.png,1,"[1,-1,-1]",0,0,Symb,u,RT,0,0,103,1,3,99,99,u,0.730045,1,2,103,0,103,0,1,,,,,
,,,,,,,,,,,,,,,,,,,,1,2,2021-01-05_15h18.54.464,CL_C2S3,2020.1.3,Win32,60,,,,,u,1,0.468025,0,media/dcnb.png,1,"[1,-1,-1]",0,0,Symb,u,RT,0,0,104,1,3,99,99,u,0.468025,1,2,104,0,104,0,1,,,,,
,,,,,,,,,,,,,,,,,,,,1,2,2021-01-05_15h18.54.464,CL_C2S3,2020.1.3,Win32,60,,,,,h,1,0.80161,0,media/dcnb.png,2,"[-1,1,-1]",3,0,Symb,h,RT,0,0,105,1,3,99,99,h,0.80161,1,2,105,0,105,0,1,,,,,
,,,,,,,,,,,,,,,,,,,,1,2,2021-01-05_15h18.54.464,CL_C2S3,2020.1.3,Win32,60,,,,,u,1,1.00141,2,media/dknb.png,2,"[-1,1,-1]",5,0,Symb,u,RT,0,0,106,1,3,99,99,u,1.00141,1,2,106,0,106,0,1,,,,,
,,,,,,,,,,,,,,,,,,,,1,2,2021-01-05_15h18.54.464,CL_C2S3,2020.1.3,Win32,60,,,,,i,1,0.51681,2,media/dknb.png,1,"[1,-1,-1]",2,0,Symb,i,RT,0,0,107,1,3,99,99,i,0.51681,1,2,107,0,107,0,1,,,,,
,,,,,,,,,,,,,,,,,,,,1,2,2021-01-05_15h18.54.464,CL_C2S3,2020.1.3,Win32,60,,,,,h,1,0.679675,0,media/dcnb.png,2,"[-1,1,-1]",3,0,Symb,h,RT,0,0,108,1,3,99,99,h,0.679675,1,2,108,0,108,0,1,,,,,
,,,,,,,,,,,,,,,,,,,,1,2,2021-01-05_15h18.54.464,CL_C2S3,2020.1.3,Win32,60,,,,,h,1,0.513535,1,media/dfnb.png,1,"[1,-1,-1]",1,1,Symb,h,RT,0,0,109,1,3,99,99,h,0.513535,1,2,109,0,109,0,1,,,,,
,,,,,,,,,,,,,,,,,,,,1,2,2021-01-05_15h18.54.464,CL_C2S3,2020.1.3,Win32,60,,,,,i,1,0.77467,1,media/dfnb.png,2,"[-1,1,-1]",4,1,Symb,i,RT,0,0,110,1,3,99,99,i,0.77467,1,2,110,0,110,0,1,,,,,
,,,,,,,,,,,,,,,,,,,,1,2,2021-01-05_15h18.54.464,CL_C2S3,2020.1.3,Win32,60,,,,,h,1,0.58521,1,media/dfnb.png,1,"[1,-1,-1]",1,1,Symb,h,RT,0,0,111,1,3,99,99,h,0.58521,1,2,111,0,111,0,1,,,,,
,,,,,,,,,,,,,,,,,,,,1,2,2021-01-05_15h18.54.464,CL_C2S3,2020.1.3,Win32,60,,,,,u,1,1.219115,2,media/dknb.png,2,"[-1,1,-1]",5,0,Symb,u,RT,0,0,112,1,3,99,99,u,1.219115,1,2,112,0,112,0,1,,,,,
,,,,,,,,,,,,,,,,,,,,1,2,2021-01-05_15h18.54.464,CL_C2S3,2020.1.3,Win32,60,,,,,i,1,0.52373,2,media/dknb.png,1,"[1,-1,-1]",2,0,Symb,i,RT,0,0,113,1,3,99,99,i,0.52373,1,2,113,0,113,0,1,,,,,
,,,,,,,,,,,,,,,,,,,,1,2,2021-01-05_15h18.54.464,CL_C2S3,2020.1.3,Win32,60,,,,,i,1,1.00001,1,media/dfnb.png,2,"[-1,1,-1]",4,1,Symb,i,RT,0,0,114,1,3,99,99,i,1.00001,1,2,114,0,114,0,1,,,,,
,,,,,,,,,,,,,,,,,,,,1,2,2021-01-05_15h18.54.464,CL_C2S3,2020.1.3,Win32,60,,,,,u,1,0.791665,0,media/dcnb.png,1,"[1,-1,-1]",0,0,Symb,u,RT,0,0,115,1,3,99,99,u,0.791665,1,2,115,0,115,0,1,,,,,
,,,,,,,,,,,,,,,,,,,,1,2,2021-01-05_15h18.54.464,CL_C2S3,2020.1.3,Win32,60,,,,,h,1,0.53228,0,media/dcnb.png,2,"[-1,1,-1]",3,0,Symb,h,RT,0,0,116,1,3,99,99,h,0.53228,1,2,116,0,116,0,1,,,,,
,,,,,,,,,,,,,,,,,,,,1,2,2021-01-05_15h18.54.464,CL_C2S3,2020.1.3,Win32,60,,,,,i,1,0.661295,2,media/dknb.png,1,"[1,-1,-1]",2,0,Symb,i,RT,0,0,117,1,3,99,99,i,0.661295,1,2,117,0,117,0,1,,,,,
,,,,,,,,,,,,,,,,,,,,1,2,2021-01-05_15h18.54.464,CL_C2S3,2020.1.3,Win32,60,,,,,h,1,0.533865,1,media/dfnb.png,1,"[1,-1,-1]",1,1,Symb,h,RT,0,0,118,1,3,99,99,h,0.533865,1,2,118,0,118,0,1,,,,,
,,,,,,,,,,,,,,,,,,,,1,2,2021-01-05_15h18.54.464,CL_C2S3,2020.1.3,Win32,60,,,,,u,1,0.71837,2,media/dknb.png,2,"[-1,1,-1]",5,0,Symb,u,RT,0,0,119,1,3,99,99,u,0.71837,1,2,119,0,119,0,1,,,,,
,,,,,,,,,,,,,,,,,,,,1,2,2021-01-05_15h18.54.464,CL_C2S3,2020.1.3,Win32,60,,,,,,,,,,,,,,,,,,,,,,,,,,,,,,,,,2,0,2,0,1
,,,,,,,,,,,,,,,,,,,,1,2,2021-01-05_15h18.54.464,CL_C2S3,2020.1.3,Win32,60,,,h,10.76938,u,1,1.1837,0,media/dcnb.png,1,"[1,-1,-1]",0,0,Symb,u,RT,0,0,0,1,4,99,99,u,1.1837,1,2,0,0,0,0,1,,,,,
,,,,,,,,,,,,,,,,,,,,1,2,2021-01-05_15h18.54.464,CL_C2S3,2020.1.3,Win32,60,,,,,h,0,1.35755,2,media/dknb.png,2,"[-1,1,-1]",5,0,Symb,u,RT,0,0,1,1,4,99,99,h,1.35755,0,2,1,0,1,0,1,,,,,
,,,,,,,,,,,,,,,,,,,,1,2,2021-01-05_15h18.54.464,CL_C2S3,2020.1.3,Win32,60,,,,,u,1,0.40177,2,media/dknb.png,2,"[-1,1,-1]",5,0,Symb,u,RT,0,0,2,1,4,99,99,u,0.40177,1,2,2,0,2,0,1,,,,,
,,,,,,,,,,,,,,,,,,,,1,2,2021-01-05_15h18.54.464,CL_C2S3,2020.1.3,Win32,60,,,,,h,1,0.8921,0,media/dcnb.png,2,"[-1,1,-1]",3,0,Symb,h,RT,0,0,3,1,4,99,99,h,0.8921,1,2,3,0,3,0,1,,,,,
,,,,,,,,,,,,,,,,,,,,1,2,2021-01-05_15h18.54.464,CL_C2S3,2020.1.3,Win32,60,,,,,i,1,0.534495,2,media/dknb.png,1,"[1,-1,-1]",2,0,Symb,i,RT,0,0,4,1,4,99,99,i,0.534495,1,2,4,0,4,0,1,,,,,
,,,,,,,,,,,,,,,,,,,,1,2,2021-01-05_15h18.54.464,CL_C2S3,2020.1.3,Win32,60,,,,,i,1,0.38456,2,media/dknb.png,1,"[1,-1,-1]",2,0,Symb,i,RT,0,0,5,1,4,99,99,i,0.38456,1,2,5,0,5,0,1,,,,,
,,,,,,,,,,,,,,,,,,,,1,2,2021-01-05_15h18.54.464,CL_C2S3,2020.1.3,Win32,60,,,,,h,1,0.44325,1,media/dfnb.png,1,"[1,-1,-1]",1,1,Symb,h,RT,0,0,6,1,4,99,99,h,0.44325,1,2,6,0,6,0,1,,,,,
,,,,,,,,,,,,,,,,,,,,1,2,2021-01-05_15h18.54.464,CL_C2S3,2020.1.3,Win32,60,,,,,h,1,0.862495,0,media/dcnb.png,2,"[-1,1,-1]",3,0,Symb,h,RT,0,0,7,1,4,99,99,h,0.862495,1,2,7,0,7,0,1,,,,,
,,,,,,,,,,,,,,,,,,,,1,2,2021-01-05_15h18.54.464,CL_C2S3,2020.1.3,Win32,60,,,,,u,1,0.608185,0,media/dcnb.png,1,"[1,-1,-1]",0,0,Symb,u,RT,0,0,8,1,4,99,99,u,0.608185,1,2,8,0,8,0,1,,,,,
,,,,,,,,,,,,,,,,,,,,1,2,2021-01-05_15h18.54.464,CL_C2S3,2020.1.3,Win32,60,,,,,i,1,0.655595,1,media/dfnb.png,2,"[-1,1,-1]",4,1,Symb,i,RT,0,0,9,1,4,99,99,i,0.655595,1,2,9,0,9,0,1,,,,,
,,,,,,,,,,,,,,,,,,,,1,2,2021-01-05_15h18.54.464,CL_C2S3,2020.1.3,Win32,60,,,,,h,1,0.510955,1,media/dfnb.png,1,"[1,-1,-1]",1,1,Symb,h,RT,0,0,10,1,4,99,99,h,0.510955,1,2,10,0,10,0,1,,,,,
,,,,,,,,,,,,,,,,,,,,1,2,2021-01-05_15h18.54.464,CL_C2S3,2020.1.3,Win32,60,,,,,i,1,0.59977,1,media/dfnb.png,2,"[-1,1,-1]",4,1,Symb,i,RT,0,0,11,1,4,99,99,i,0.59977,1,2,11,0,11,0,1,,,,,
,,,,,,,,,,,,,,,,,,,,1,2,2021-01-05_15h18.54.464,CL_C2S3,2020.1.3,Win32,60,,,,,u,0,0.71199,2,media/dknb.png,1,"[1,-1,-1]",2,0,Symb,i,RT,0,0,12,1,4,99,99,u,0.71199,0,2,12,0,12,0,1,,,,,
,,,,,,,,,,,,,,,,,,,,1,2,2021-01-05_15h18.54.464,CL_C2S3,2020.1.3,Win32,60,,,,,h,1,0.63305,1,media/dfnb.png,1,"[1,-1,-1]",1,1,Symb,h,RT,0,0,13,1,4,99,99,h,0.63305,1,2,13,0,13,0,1,,,,,
,,,,,,,,,,,,,,,,,,,,1,2,2021-01-05_15h18.54.464,CL_C2S3,2020.1.3,Win32,60,,,,,u,1,0.65782,0,media/dcnb.png,1,"[1,-1,-1]",0,0,Symb,u,RT,0,0,14,1,4,99,99,u,0.65782,1,2,14,0,14,0,1,,,,,
,,,,,,,,,,,,,,,,,,,,1,2,2021-01-05_15h18.54.464,CL_C2S3,2020.1.3,Win32,60,,,,,i,0,0.54086,0,media/dcnb.png,2,"[-1,1,-1]",3,0,Symb,h,RT,0,0,15,1,4,99,99,i,0.54086,0,2,15,0,15,0,1,,,,,
,,,,,,,,,,,,,,,,,,,,1,2,2021-01-05_15h18.54.464,CL_C2S3,2020.1.3,Win32,60,,,,,h,1,0.80083,1,media/dfnb.png,1,"[1,-1,-1]",1,1,Symb,h,RT,0,0,16,1,4,99,99,h,0.80083,1,2,16,0,16,0,1,,,,,
,,,,,,,,,,,,,,,,,,,,1,2,2021-01-05_15h18.54.464,CL_C2S3,2020.1.3,Win32,60,,,,,u,1,0.55891,2,media/dknb.png,2,"[-1,1,-1]",5,0,Symb,u,RT,0,0,17,1,4,99,99,u,0.55891,1,2,17,0,17,0,1,,,,,
,,,,,,,,,,,,,,,,,,,,1,2,2021-01-05_15h18.54.464,CL_C2S3,2020.1.3,Win32,60,,,,,u,1,0.51027,2,media/dknb.png,2,"[-1,1,-1]",5,0,Symb,u,RT,0,0,18,1,4,99,99,u,0.51027,1,2,18,0,18,0,1,,,,,
,,,,,,,,,,,,,,,,,,,,1,2,2021-01-05_15h18.54.464,CL_C2S3,2020.1.3,Win32,60,,,,,h,1,0.88928,0,media/dcnb.png,2,"[-1,1,-1]",3,0,Symb,h,RT,0,0,19,1,4,99,99,h,0.88928,1,2,19,0,19,0,1,,,,,
,,,,,,,,,,,,,,,,,,,,1,2,2021-01-05_15h18.54.464,CL_C2S3,2020.1.3,Win32,60,,,,,i,1,0.59696,2,media/dknb.png,1,"[1,-1,-1]",2,0,Symb,i,RT,0,0,20,1,4,99,99,i,0.59696,1,2,20,0,20,0,1,,,,,
,,,,,,,,,,,,,,,,,,,,1,2,2021-01-05_15h18.54.464,CL_C2S3,2020.1.3,Win32,60,,,,,h,0,1.75802,0,media/dcnb.png,1,"[1,-1,-1]",0,0,Symb,u,RT,0,0,21,1,4,99,99,h,1.75802,0,2,21,0,21,0,1,,,,,
,,,,,,,,,,,,,,,,,,,,1,2,2021-01-05_15h18.54.464,CL_C2S3,2020.1.3,Win32,60,,,,,i,1,1.048645,1,media/dfnb.png,2,"[-1,1,-1]",4,1,Symb,i,RT,0,0,22,1,4,99,99,i,1.048645,1,2,22,0,22,0,1,,,,,
,,,,,,,,,,,,,,,,,,,,1,2,2021-01-05_15h18.54.464,CL_C2S3,2020.1.3,Win32,60,,,,,i,1,0.42269,1,media/dfnb.png,2,"[-1,1,-1]",4,1,Symb,i,RT,0,0,23,1,4,99,99,i,0.42269,1,2,23,0,23,0,1,,,,,
,,,,,,,,,,,,,,,,,,,,1,2,2021-01-05_15h18.54.464,CL_C2S3,2020.1.3,Win32,60,,,,,h,1,1.76311,0,media/dcnb.png,2,"[-1,1,-1]",3,0,Symb,h,RT,0,0,24,1,4,99,99,h,1.76311,1,2,24,0,24,0,1,,,,,
,,,,,,,,,,,,,,,,,,,,1,2,2021-01-05_15h18.54.464,CL_C2S3,2020.1.3,Win32,60,,,,,u,1,1.030695,2,media/dknb.png,2,"[-1,1,-1]",5,0,Symb,u,RT,0,0,25,1,4,99,99,u,1.030695,1,2,25,0,25,0,1,,,,,
,,,,,,,,,,,,,,,,,,,,1,2,2021-01-05_15h18.54.464,CL_C2S3,2020.1.3,Win32,60,,,,,h,0,0.570605,0,media/dcnb.png,1,"[1,-1,-1]",0,0,Symb,u,RT,0,0,26,1,4,99,99,h,0.570605,0,2,26,0,26,0,1,,,,,
,,,,,,,,,,,,,,,,,,,,1,2,2021-01-05_15h18.54.464,CL_C2S3,2020.1.3,Win32,60,,,,,h,1,0.8281,1,media/dfnb.png,1,"[1,-1,-1]",1,1,Symb,h,RT,0,0,27,1,4,99,99,h,0.8281,1,2,27,0,27,0,1,,,,,
,,,,,,,,,,,,,,,,,,,,1,2,2021-01-05_15h18.54.464,CL_C2S3,2020.1.3,Win32,60,,,,,i,1,1.26231,1,media/dfnb.png,2,"[-1,1,-1]",4,1,Symb,i,RT,0,0,28,1,4,99,99,i,1.26231,1,2,28,0,28,0,1,,,,,
,,,,,,,,,,,,,,,,,,,,1,2,2021-01-05_15h18.54.464,CL_C2S3,2020.1.3,Win32,60,,,,,i,1,0.756385,2,media/dknb.png,1,"[1,-1,-1]",2,0,Symb,i,RT,0,0,29,1,4,99,99,i,0.756385,1,2,29,0,29,0,1,,,,,
,,,,,,,,,,,,,,,,,,,,1,2,2021-01-05_15h18.54.464,CL_C2S3,2020.1.3,Win32,60,,,,,h,0,0.78617,1,media/dfnb.png,2,"[-1,1,-1]",4,1,Symb,i,RT,0,0,30,1,4,99,99,h,0.78617,0,2,30,0,30,0,1,,,,,
,,,,,,,,,,,,,,,,,,,,1,2,2021-01-05_15h18.54.464,CL_C2S3,2020.1.3,Win32,60,,,,,h,1,0.98925,1,media/dfnb.png,1,"[1,-1,-1]",1,1,Symb,h,RT,0,0,31,1,4,99,99,h,0.98925,1,2,31,0,31,0,1,,,,,
,,,,,,,,,,,,,,,,,,,,1,2,2021-01-05_15h18.54.464,CL_C2S3,2020.1.3,Win32,60,,,,,i,1,1.21866,1,media/dfnb.png,2,"[-1,1,-1]",4,1,Symb,i,RT,0,0,32,1,4,99,99,i,1.21866,1,2,32,0,32,0,1,,,,,
,,,,,,,,,,,,,,,,,,,,1,2,2021-01-05_15h18.54.464,CL_C2S3,2020.1.3,Win32,60,,,,,i,1,1.324005,2,media/dknb.png,1,"[1,-1,-1]",2,0,Symb,i,RT,0,0,33,1,4,99,99,i,1.324005,1,2,33,0,33,0,1,,,,,
,,,,,,,,,,,,,,,,,,,,1,2,2021-01-05_15h18.54.464,CL_C2S3,2020.1.3,Win32,60,,,,,u,1,0.62304,2,media/dknb.png,2,"[-1,1,-1]",5,0,Symb,u,RT,0,0,34,1,4,99,99,u,0.62304,1,2,34,0,34,0,1,,,,,
,,,,,,,,,,,,,,,,,,,,1,2,2021-01-05_15h18.54.464,CL_C2S3,2020.1.3,Win32,60,,,,,i,1,0.54839,2,media/dknb.png,1,"[1,-1,-1]",2,0,Symb,i,RT,0,0,35,1,4,99,99,i,0.54839,1,2,35,0,35,0,1,,,,,
,,,,,,,,,,,,,,,,,,,,1,2,2021-01-05_15h18.54.464,CL_C2S3,2020.1.3,Win32,60,,,,,u,1,0.68758,2,media/dknb.png,2,"[-1,1,-1]",5,0,Symb,u,RT,0,0,36,1,4,99,99,u,0.68758,1,2,36,0,36,0,1,,,,,
,,,,,,,,,,,,,,,,,,,,1,2,2021-01-05_15h18.54.464,CL_C2S3,2020.1.3,Win32,60,,,,,h,1,0.893405,0,media/dcnb.png,2,"[-1,1,-1]",3,0,Symb,h,RT,0,0,37,1,4,99,99,h,0.893405,1,2,37,0,37,0,1,,,,,
,,,,,,,,,,,,,,,,,,,,1,2,2021-01-05_15h18.54.464,CL_C2S3,2020.1.3,Win32,60,,,,,h,1,0.42607,0,media/dcnb.png,2,"[-1,1,-1]",3,0,Symb,h,RT,0,0,38,1,4,99,99,h,0.42607,1,2,38,0,38,0,1,,,,,
,,,,,,,,,,,,,,,,,,,,1,2,2021-01-05_15h18.54.464,CL_C2S3,2020.1.3,Win32,60,,,,,h,1,1.220075,1,media/dfnb.png,1,"[1,-1,-1]",1,1,Symb,h,RT,0,0,39,1,4,99,99,h,1.220075,1,2,39,0,39,0,1,,,,,
,,,,,,,,,,,,,,,,,,,,1,2,2021-01-05_15h18.54.464,CL_C2S3,2020.1.3,Win32,60,,,,,u,1,0.719065,0,media/dcnb.png,1,"[1,-1,-1]",0,0,Symb,u,RT,0,0,40,1,4,99,99,u,0.719065,1,2,40,0,40,0,1,,,,,
,,,,,,,,,,,,,,,,,,,,1,2,2021-01-05_15h18.54.464,CL_C2S3,2020.1.3,Win32,60,,,,,u,1,0.505265,0,media/dcnb.png,1,"[1,-1,-1]",0,0,Symb,u,RT,0,0,41,1,4,99,99,u,0.505265,1,2,41,0,41,0,1,,,,,
,,,,,,,,,,,,,,,,,,,,1,2,2021-01-05_15h18.54.464,CL_C2S3,2020.1.3,Win32,60,,,,,h,1,3.143795,1,media/dfnb.png,1,"[1,-1,-1]",1,1,Symb,h,RT,0,0,42,1,4,99,99,h,3.143795,1,2,42,0,42,0,1,,,,,
,,,,,,,,,,,,,,,,,,,,1,2,2021-01-05_15h18.54.464,CL_C2S3,2020.1.3,Win32,60,,,,,i,1,0.50348,1,media/dfnb.png,2,"[-1,1,-1]",4,1,Symb,i,RT,0,0,43,1,4,99,99,i,0.50348,1,2,43,0,43,0,1,,,,,
,,,,,,,,,,,,,,,,,,,,1,2,2021-01-05_15h18.54.464,CL_C2S3,2020.1.3,Win32,60,,,,,h,1,0.58734,1,media/dfnb.png,1,"[1,-1,-1]",1,1,Symb,h,RT,0,0,44,1,4,99,99,h,0.58734,1,2,44,0,44,0,1,,,,,
,,,,,,,,,,,,,,,,,,,,1,2,2021-01-05_15h18.54.464,CL_C2S3,2020.1.3,Win32,60,,,,,h,1,0.768265,0,media/dcnb.png,2,"[-1,1,-1]",3,0,Symb,h,RT,0,0,45,1,4,99,99,h,0.768265,1,2,45,0,45,0,1,,,,,
,,,,,,,,,,,,,,,,,,,,1,2,2021-01-05_15h18.54.464,CL_C2S3,2020.1.3,Win32,60,,,,,h,0,0.78661,1,media/dfnb.png,2,"[-1,1,-1]",4,1,Symb,i,RT,0,0,46,1,4,99,99,h,0.78661,0,2,46,0,46,0,1,,,,,
,,,,,,,,,,,,,,,,,,,,1,2,2021-01-05_15h18.54.464,CL_C2S3,2020.1.3,Win32,60,,,,,i,1,0.677495,2,media/dknb.png,1,"[1,-1,-1]",2,0,Symb,i,RT,0,0,47,1,4,99,99,i,0.677495,1,2,47,0,47,0,1,,,,,
,,,,,,,,,,,,,,,,,,,,1,2,2021-01-05_15h18.54.464,CL_C2S3,2020.1.3,Win32,60,,,,,u,1,0.531905,2,media/dknb.png,2,"[-1,1,-1]",5,0,Symb,u,RT,0,0,48,1,4,99,99,u,0.531905,1,2,48,0,48,0,1,,,,,
,,,,,,,,,,,,,,,,,,,,1,2,2021-01-05_15h18.54.464,CL_C2S3,2020.1.3,Win32,60,,,,,h,1,0.536985,0,media/dcnb.png,2,"[-1,1,-1]",3,0,Symb,h,RT,0,0,49,1,4,99,99,h,0.536985,1,2,49,0,49,0,1,,,,,
,,,,,,,,,,,,,,,,,,,,1,2,2021-01-05_15h18.54.464,CL_C2S3,2020.1.3,Win32,60,,,,,i,1,0.55652,2,media/dknb.png,1,"[1,-1,-1]",2,0,Symb,i,RT,0,0,50,1,4,99,99,i,0.55652,1,2,50,0,50,0,1,,,,,
,,,,,,,,,,,,,,,,,,,,1,2,2021-01-05_15h18.54.464,CL_C2S3,2020.1.3,Win32,60,,,,,u,1,0.672265,0,media/dcnb.png,1,"[1,-1,-1]",0,0,Symb,u,RT,0,0,51,1,4,99,99,u,0.672265,1,2,51,0,51,0,1,,,,,
,,,,,,,,,,,,,,,,,,,,1,2,2021-01-05_15h18.54.464,CL_C2S3,2020.1.3,Win32,60,,,,,u,1,0.449965,0,media/dcnb.png,1,"[1,-1,-1]",0,0,Symb,u,RT,0,0,52,1,4,99,99,u,0.449965,1,2,52,0,52,0,1,,,,,
,,,,,,,,,,,,,,,,,,,,1,2,2021-01-05_15h18.54.464,CL_C2S3,2020.1.3,Win32,60,,,,,u,1,0.589785,2,media/dknb.png,2,"[-1,1,-1]",5,0,Symb,u,RT,0,0,53,1,4,99,99,u,0.589785,1,2,53,0,53,0,1,,,,,
,,,,,,,,,,,,,,,,,,,,1,2,2021-01-05_15h18.54.464,CL_C2S3,2020.1.3,Win32,60,,,,,u,1,0.59094,0,media/dcnb.png,1,"[1,-1,-1]",0,0,Symb,u,RT,0,0,54,1,4,99,99,u,0.59094,1,2,54,0,54,0,1,,,,,
,,,,,,,,,,,,,,,,,,,,1,2,2021-01-05_15h18.54.464,CL_C2S3,2020.1.3,Win32,60,,,,,h,1,0.913165,0,media/dcnb.png,2,"[-1,1,-1]",3,0,Symb,h,RT,0,0,55,1,4,99,99,h,0.913165,1,2,55,0,55,0,1,,,,,
,,,,,,,,,,,,,,,,,,,,1,2,2021-01-05_15h18.54.464,CL_C2S3,2020.1.3,Win32,60,,,,,h,1,0.641,1,media/dfnb.png,1,"[1,-1,-1]",1,1,Symb,h,RT,0,0,56,1,4,99,99,h,0.641,1,2,56,0,56,0,1,,,,,
,,,,,,,,,,,,,,,,,,,,1,2,2021-01-05_15h18.54.464,CL_C2S3,2020.1.3,Win32,60,,,,,u,1,0.598675,2,media/dknb.png,2,"[-1,1,-1]",5,0,Symb,u,RT,0,0,57,1,4,99,99,u,0.598675,1,2,57,0,57,0,1,,,,,
,,,,,,,,,,,,,,,,,,,,1,2,2021-01-05_15h18.54.464,CL_C2S3,2020.1.3,Win32,60,,,,,h,0,2.37953,1,media/dfnb.png,2,"[-1,1,-1]",4,1,Symb,i,RT,0,0,58,1,4,99,99,h,2.37953,0,2,58,0,58,0,1,,,,,
,,,,,,,,,,,,,,,,,,,,1,2,2021-01-05_15h18.54.464,CL_C2S3,2020.1.3,Win32,60,,,,,u,0,0.77378,2,media/dknb.png,1,"[1,-1,-1]",2,0,Symb,i,RT,0,0,59,1,4,99,99,u,0.77378,0,2,59,0,59,0,1,,,,,
,,,,,,,,,,,,,,,,,,,,1,2,2021-01-05_15h18.54.464,CL_C2S3,2020.1.3,Win32,60,,,,,h,0,0.607255,1,media/dfnb.png,2,"[-1,1,-1]",4,1,Symb,i,RT,0,0,60,1,4,99,99,h,0.607255,0,2,60,0,60,0,1,,,,,
,,,,,,,,,,,,,,,,,,,,1,2,2021-01-05_15h18.54.464,CL_C2S3,2020.1.3,Win32,60,,,,,u,1,0.774535,2,media/dknb.png,2,"[-1,1,-1]",5,0,Symb,u,RT,0,0,61,1,4,99,99,u,0.774535,1,2,61,0,61,0,1,,,,,
,,,,,,,,,,,,,,,,,,,,1,2,2021-01-05_15h18.54.464,CL_C2S3,2020.1.3,Win32,60,,,,,h,1,0.70242,0,media/dcnb.png,2,"[-1,1,-1]",3,0,Symb,h,RT,0,0,62,1,4,99,99,h,0.70242,1,2,62,0,62,0,1,,,,,
,,,,,,,,,,,,,,,,,,,,1,2,2021-01-05_15h18.54.464,CL_C2S3,2020.1.3,Win32,60,,,,,u,1,0.758645,0,media/dcnb.png,1,"[1,-1,-1]",0,0,Symb,u,RT,0,0,63,1,4,99,99,u,0.758645,1,2,63,0,63,0,1,,,,,
,,,,,,,,,,,,,,,,,,,,1,2,2021-01-05_15h18.54.464,CL_C2S3,2020.1.3,Win32,60,,,,,h,0,0.77334,1,media/dfnb.png,2,"[-1,1,-1]",4,1,Symb,i,RT,0,0,64,1,4,99,99,h,0.77334,0,2,64,0,64,0,1,,,,,
,,,,,,,,,,,,,,,,,,,,1,2,2021-01-05_15h18.54.464,CL_C2S3,2020.1.3,Win32,60,,,,,u,1,0.795345,0,media/dcnb.png,1,"[1,-1,-1]",0,0,Symb,u,RT,0,0,65,1,4,99,99,u,0.795345,1,2,65,0,65,0,1,,,,,
,,,,,,,,,,,,,,,,,,,,1,2,2021-01-05_15h18.54.464,CL_C2S3,2020.1.3,Win32,60,,,,,h,1,0.61458,0,media/dcnb.png,2,"[-1,1,-1]",3,0,Symb,h,RT,0,0,66,1,4,99,99,h,0.61458,1,2,66,0,66,0,1,,,,,
,,,,,,,,,,,,,,,,,,,,1,2,2021-01-05_15h18.54.464,CL_C2S3,2020.1.3,Win32,60,,,,,i,1,0.69957,2,media/dknb.png,1,"[1,-1,-1]",2,0,Symb,i,RT,0,0,67,1,4,99,99,i,0.69957,1,2,67,0,67,0,1,,,,,
,,,,,,,,,,,,,,,,,,,,1,2,2021-01-05_15h18.54.464,CL_C2S3,2020.1.3,Win32,60,,,,,i,1,0.4477,2,media/dknb.png,1,"[1,-1,-1]",2,0,Symb,i,RT,0,0,68,1,4,99,99,i,0.4477,1,2,68,0,68,0,1,,,,,
,,,,,,,,,,,,,,,,,,,,1,2,2021-01-05_15h18.54.464,CL_C2S3,2020.1.3,Win32,60,,,,,h,1,0.69083,1,media/dfnb.png,1,"[1,-1,-1]",1,1,Symb,h,RT,0,0,69,1,4,99,99,h,0.69083,1,2,69,0,69,0,1,,,,,
,,,,,,,,,,,,,,,,,,,,1,2,2021-01-05_15h18.54.464,CL_C2S3,2020.1.3,Win32,60,,,,,h,1,0.520465,1,media/dfnb.png,1,"[1,-1,-1]",1,1,Symb,h,RT,0,0,70,1,4,99,99,h,0.520465,1,2,70,0,70,0,1,,,,,
,,,,,,,,,,,,,,,,,,,,1,2,2021-01-05_15h18.54.464,CL_C2S3,2020.1.3,Win32,60,,,,,u,1,0.68626,2,media/dknb.png,2,"[-1,1,-1]",5,0,Symb,u,RT,0,0,71,1,4,99,99,u,0.68626,1,2,71,0,71,0,1,,,,,
,,,,,,,,,,,,,,,,,,,,1,2,2021-01-05_15h18.54.464,CL_C2S3,2020.1.3,Win32,60,,,,,i,1,0.80933,1,media/dfnb.png,2,"[-1,1,-1]",4,1,Symb,i,RT,0,0,72,1,4,99,99,i,0.80933,1,2,72,0,72,0,1,,,,,
,,,,,,,,,,,,,,,,,,,,1,2,2021-01-05_15h18.54.464,CL_C2S3,2020.1.3,Win32,60,,,,,i,1,0.37668,1,media/dfnb.png,2,"[-1,1,-1]",4,1,Symb,i,RT,0,0,73,1,4,99,99,i,0.37668,1,2,73,0,73,0,1,,,,,
,,,,,,,,,,,,,,,,,,,,1,2,2021-01-05_15h18.54.464,CL_C2S3,2020.1.3,Win32,60,,,,,h,1,0.84273,0,media/dcnb.png,2,"[-1,1,-1]",3,0,Symb,h,RT,0,0,74,1,4,99,99,h,0.84273,1,2,74,0,74,0,1,,,,,
,,,,,,,,,,,,,,,,,,,,1,2,2021-01-05_15h18.54.464,CL_C2S3,2020.1.3,Win32,60,,,,,i,1,0.87405,2,media/dknb.png,1,"[1,-1,-1]",2,0,Symb,i,RT,0,0,75,1,4,99,99,i,0.87405,1,2,75,0,75,0,1,,,,,
,,,,,,,,,,,,,,,,,,,,1,2,2021-01-05_15h18.54.464,CL_C2S3,2020.1.3,Win32,60,,,,,u,1,0.74394,0,media/dcnb.png,1,"[1,-1,-1]",0,0,Symb,u,RT,0,0,76,1,4,99,99,u,0.74394,1,2,76,0,76,0,1,,,,,
,,,,,,,,,,,,,,,,,,,,1,2,2021-01-05_15h18.54.464,CL_C2S3,2020.1.3,Win32,60,,,,,u,1,0.75019,2,media/dknb.png,2,"[-1,1,-1]",5,0,Symb,u,RT,0,0,77,1,4,99,99,u,0.75019,1,2,77,0,77,0,1,,,,,
,,,,,,,,,,,,,,,,,,,,1,2,2021-01-05_15h18.54.464,CL_C2S3,2020.1.3,Win32,60,,,,,u,1,0.4171,2,media/dknb.png,2,"[-1,1,-1]",5,0,Symb,u,RT,0,0,78,1,4,99,99,u,0.4171,1,2,78,0,78,0,1,,,,,
,,,,,,,,,,,,,,,,,,,,1,2,2021-01-05_15h18.54.464,CL_C2S3,2020.1.3,Win32,60,,,,,h,1,0.90162,1,media/dfnb.png,1,"[1,-1,-1]",1,1,Symb,h,RT,0,0,79,1,4,99,99,h,0.90162,1,2,79,0,79,0,1,,,,,
,,,,,,,,,,,,,,,,,,,,1,2,2021-01-05_15h18.54.464,CL_C2S3,2020.1.3,Win32,60,,,,,h,1,0.36466,1,media/dfnb.png,1,"[1,-1,-1]",1,1,Symb,h,RT,0,0,80,1,4,99,99,h,0.36466,1,2,80,0,80,0,1,,,,,
,,,,,,,,,,,,,,,,,,,,1,2,2021-01-05_15h18.54.464,CL_C2S3,2020.1.3,Win32,60,,,,,h,1,2.06221,0,media/dcnb.png,2,"[-1,1,-1]",3,0,Symb,h,RT,0,0,81,1,4,99,99,h,2.06221,1,2,81,0,81,0,1,,,,,
,,,,,,,,,,,,,,,,,,,,1,2,2021-01-05_15h18.54.464,CL_C2S3,2020.1.3,Win32,60,,,,,u,1,1.15233,0,media/dcnb.png,1,"[1,-1,-1]",0,0,Symb,u,RT,0,0,82,1,4,99,99,u,1.15233,1,2,82,0,82,0,1,,,,,
,,,,,,,,,,,,,,,,,,,,1,2,2021-01-05_15h18.54.464,CL_C2S3,2020.1.3,Win32,60,,,,,i,1,0.66372,2,media/dknb.png,1,"[1,-1,-1]",2,0,Symb,i,RT,0,0,83,1,4,99,99,i,0.66372,1,2,83,0,83,0,1,,,,,
,,,,,,,,,,,,,,,,,,,,1,2,2021-01-05_15h18.54.464,CL_C2S3,2020.1.3,Win32,60,,,,,u,1,0.99202,2,media/dknb.png,2,"[-1,1,-1]",5,0,Symb,u,RT,0,0,84,1,4,99,99,u,0.99202,1,2,84,0,84,0,1,,,,,
,,,,,,,,,,,,,,,,,,,,1,2,2021-01-05_15h18.54.464,CL_C2S3,2020.1.3,Win32,60,,,,,i,1,1.381745,2,media/dknb.png,1,"[1,-1,-1]",2,0,Symb,i,RT,0,0,85,1,4,99,99,i,1.381745,1,2,85,0,85,0,1,,,,,
,,,,,,,,,,,,,,,,,,,,1,2,2021-01-05_15h18.54.464,CL_C2S3,2020.1.3,Win32,60,,,,,h,1,0.75985,0,media/dcnb.png,2,"[-1,1,-1]",3,0,Symb,h,RT,0,0,86,1,4,99,99,h,0.75985,1,2,86,0,86,0,1,,,,,
,,,,,,,,,,,,,,,,,,,,1,2,2021-01-05_15h18.54.464,CL_C2S3,2020.1.3,Win32,60,,,,,u,1,0.829245,0,media/dcnb.png,1,"[1,-1,-1]",0,0,Symb,u,RT,0,0,87,1,4,99,99,u,0.829245,1,2,87,0,87,0,1,,,,,
,,,,,,,,,,,,,,,,,,,,1,2,2021-01-05_15h18.54.464,CL_C2S3,2020.1.3,Win32,60,,,,,h,1,1.573165,1,media/dfnb.png,1,"[1,-1,-1]",1,1,Symb,h,RT,0,0,88,1,4,99,99,h,1.573165,1,2,88,0,88,0,1,,,,,
,,,,,,,,,,,,,,,,,,,,1,2,2021-01-05_15h18.54.464,CL_C2S3,2020.1.3,Win32,60,,,,,i,1,0.67232,1,media/dfnb.png,2,"[-1,1,-1]",4,1,Symb,i,RT,0,0,89,1,4,99,99,i,0.67232,1,2,89,0,89,0,1,,,,,
,,,,,,,,,,,,,,,,,,,,1,2,2021-01-05_15h18.54.464,CL_C2S3,2020.1.3,Win32,60,,,,,i,0,0.429955,1,media/dfnb.png,1,"[1,-1,-1]",1,1,Symb,h,RT,0,0,90,1,4,99,99,i,0.429955,0,2,90,0,90,0,1,,,,,
,,,,,,,,,,,,,,,,,,,,1,2,2021-01-05_15h18.54.464,CL_C2S3,2020.1.3,Win32,60,,,,,u,1,0.94006,2,media/dknb.png,2,"[-1,1,-1]",5,0,Symb,u,RT,0,0,91,1,4,99,99,u,0.94006,1,2,91,0,91,0,1,,,,,
,,,,,,,,,,,,,,,,,,,,1,2,2021-01-05_15h18.54.464,CL_C2S3,2020.1.3,Win32,60,,,,,i,1,1.05633,1,media/dfnb.png,2,"[-1,1,-1]",4,1,Symb,i,RT,0,0,92,1,4,99,99,i,1.05633,1,2,92,0,92,0,1,,,,,
,,,,,,,,,,,,,,,,,,,,1,2,2021-01-05_15h18.54.464,CL_C2S3,2020.1.3,Win32,60,,,,,u,1,0.90681,0,media/dcnb.png,1,"[1,-1,-1]",0,0,Symb,u,RT,0,0,93,1,4,99,99,u,0.90681,1,2,93,0,93,0,1,,,,,
,,,,,,,,,,,,,,,,,,,,1,2,2021-01-05_15h18.54.464,CL_C2S3,2020.1.3,Win32,60,,,,,h,1,0.75629,1,media/dfnb.png,1,"[1,-1,-1]",1,1,Symb,h,RT,0,0,94,1,4,99,99,h,0.75629,1,2,94,0,94,0,1,,,,,
,,,,,,,,,,,,,,,,,,,,1,2,2021-01-05_15h18.54.464,CL_C2S3,2020.1.3,Win32,60,,,,,u,1,0.80739,2,media/dknb.png,2,"[-1,1,-1]",5,0,Symb,u,RT,0,0,95,1,4,99,99,u,0.80739,1,2,95,0,95,0,1,,,,,
,,,,,,,,,,,,,,,,,,,,1,2,2021-01-05_15h18.54.464,CL_C2S3,2020.1.3,Win32,60,,,,,i,1,1.21672,1,media/dfnb.png,2,"[-1,1,-1]",4,1,Symb,i,RT,0,0,96,1,4,99,99,i,1.21672,1,2,96,0,96,0,1,,,,,
,,,,,,,,,,,,,,,,,,,,1,2,2021-01-05_15h18.54.464,CL_C2S3,2020.1.3,Win32,60,,,,,u,0,0.73226,2,media/dknb.png,1,"[1,-1,-1]",2,0,Symb,i,RT,0,0,97,1,4,99,99,u,0.73226,0,2,97,0,97,0,1,,,,,
,,,,,,,,,,,,,,,,,,,,1,2,2021-01-05_15h18.54.464,CL_C2S3,2020.1.3,Win32,60,,,,,i,1,0.55191,2,media/dknb.png,1,"[1,-1,-1]",2,0,Symb,i,RT,0,0,98,1,4,99,99,i,0.55191,1,2,98,0,98,0,1,,,,,
,,,,,,,,,,,,,,,,,,,,1,2,2021-01-05_15h18.54.464,CL_C2S3,2020.1.3,Win32,60,,,,,h,0,2.455925,0,media/dcnb.png,1,"[1,-1,-1]",0,0,Symb,u,RT,0,0,99,1,4,99,99,h,2.455925,0,2,99,0,99,0,1,,,,,
,,,,,,,,,,,,,,,,,,,,1,2,2021-01-05_15h18.54.464,CL_C2S3,2020.1.3,Win32,60,,,,,h,1,0.58313,0,media/dcnb.png,2,"[-1,1,-1]",3,0,Symb,h,RT,0,0,100,1,4,99,99,h,0.58313,1,2,100,0,100,0,1,,,,,
,,,,,,,,,,,,,,,,,,,,1,2,2021-01-05_15h18.54.464,CL_C2S3,2020.1.3,Win32,60,,,,,h,1,0.768885,0,media/dcnb.png,2,"[-1,1,-1]",3,0,Symb,h,RT,0,0,101,1,4,99,99,h,0.768885,1,2,101,0,101,0,1,,,,,
,,,,,,,,,,,,,,,,,,,,1,2,2021-01-05_15h18.54.464,CL_C2S3,2020.1.3,Win32,60,,,,,u,1,0.567155,0,media/dcnb.png,1,"[1,-1,-1]",0,0,Symb,u,RT,0,0,102,1,4,99,99,u,0.567155,1,2,102,0,102,0,1,,,,,
,,,,,,,,,,,,,,,,,,,,1,2,2021-01-05_15h18.54.464,CL_C2S3,2020.1.3,Win32,60,,,,,u,1,1.080205,0,media/dcnb.png,1,"[1,-1,-1]",0,0,Symb,u,RT,0,0,103,1,4,99,99,u,1.080205,1,2,103,0,103,0,1,,,,,
,,,,,,,,,,,,,,,,,,,,1,2,2021-01-05_15h18.54.464,CL_C2S3,2020.1.3,Win32,60,,,,,h,1,1.69865,1,media/dfnb.png,1,"[1,-1,-1]",1,1,Symb,h,RT,0,0,104,1,4,99,99,h,1.69865,1,2,104,0,104,0,1,,,,,
,,,,,,,,,,,,,,,,,,,,1,2,2021-01-05_15h18.54.464,CL_C2S3,2020.1.3,Win32,60,,,,,i,0,1.64966,2,media/dknb.png,2,"[-1,1,-1]",5,0,Symb,u,RT,0,0,105,1,4,99,99,i,1.64966,0,2,105,0,105,0,1,,,,,
,,,,,,,,,,,,,,,,,,,,1,2,2021-01-05_15h18.54.464,CL_C2S3,2020.1.3,Win32,60,,,,,i,1,0.742695,2,media/dknb.png,1,"[1,-1,-1]",2,0,Symb,i,RT,0,0,106,1,4,99,99,i,0.742695,1,2,106,0,106,0,1,,,,,
,,,,,,,,,,,,,,,,,,,,1,2,2021-01-05_15h18.54.464,CL_C2S3,2020.1.3,Win32,60,,,,,h,1,1.600045,0,media/dcnb.png,2,"[-1,1,-1]",3,0,Symb,h,RT,0,0,107,1,4,99,99,h,1.600045,1,2,107,0,107,0,1,,,,,
,,,,,,,,,,,,,,,,,,,,1,2,2021-01-05_15h18.54.464,CL_C2S3,2020.1.3,Win32,60,,,,,i,1,1.01548,2,media/dknb.png,1,"[1,-1,-1]",2,0,Symb,i,RT,0,0,108,1,4,99,99,i,1.01548,1,2,108,0,108,0,1,,,,,
,,,,,,,,,,,,,,,,,,,,1,2,2021-01-05_15h18.54.464,CL_C2S3,2020.1.3,Win32,60,,,,,i,0,0.439525,2,media/dknb.png,2,"[-1,1,-1]",5,0,Symb,u,RT,0,0,109,1,4,99,99,i,0.439525,0,2,109,0,109,0,1,,,,,
,,,,,,,,,,,,,,,,,,,,1,2,2021-01-05_15h18.54.464,CL_C2S3,2020.1.3,Win32,60,,,,,h,1,0.77732,1,media/dfnb.png,1,"[1,-1,-1]",1,1,Symb,h,RT,0,0,110,1,4,99,99,h,0.77732,1,2,110,0,110,0,1,,,,,
,,,,,,,,,,,,,,,,,,,,1,2,2021-01-05_15h18.54.464,CL_C2S3,2020.1.3,Win32,60,,,,,i,1,0.65805,1,media/dfnb.png,2,"[-1,1,-1]",4,1,Symb,i,RT,0,0,111,1,4,99,99,i,0.65805,1,2,111,0,111,0,1,,,,,
,,,,,,,,,,,,,,,,,,,,1,2,2021-01-05_15h18.54.464,CL_C2S3,2020.1.3,Win32,60,,,,,h,1,0.90868,0,media/dcnb.png,2,"[-1,1,-1]",3,0,Symb,h,RT,0,0,112,1,4,99,99,h,0.90868,1,2,112,0,112,0,1,,,,,
,,,,,,,,,,,,,,,,,,,,1,2,2021-01-05_15h18.54.464,CL_C2S3,2020.1.3,Win32,60,,,,,i,1,1.023435,1,media/dfnb.png,2,"[-1,1,-1]",4,1,Symb,i,RT,0,0,113,1,4,99,99,i,1.023435,1,2,113,0,113,0,1,,,,,
,,,,,,,,,,,,,,,,,,,,1,2,2021-01-05_15h18.54.464,CL_C2S3,2020.1.3,Win32,60,,,,,h,1,0.79848,0,media/dcnb.png,2,"[-1,1,-1]",3,0,Symb,h,RT,0,0,114,1,4,99,99,h,0.79848,1,2,114,0,114,0,1,,,,,
,,,,,,,,,,,,,,,,,,,,1,2,2021-01-05_15h18.54.464,CL_C2S3,2020.1.3,Win32,60,,,,,u,1,0.430425,0,media/dcnb.png,1,"[1,-1,-1]",0,0,Symb,u,RT,0,0,115,1,4,99,99,u,0.430425,1,2,115,0,115,0,1,,,,,
,,,,,,,,,,,,,,,,,,,,1,2,2021-01-05_15h18.54.464,CL_C2S3,2020.1.3,Win32,60,,,,,u,1,0.702995,2,media/dknb.png,2,"[-1,1,-1]",5,0,Symb,u,RT,0,0,116,1,4,99,99,u,0.702995,1,2,116,0,116,0,1,,,,,
,,,,,,,,,,,,,,,,,,,,1,2,2021-01-05_15h18.54.464,CL_C2S3,2020.1.3,Win32,60,,,,,i,1,0.767355,1,media/dfnb.png,2,"[-1,1,-1]",4,1,Symb,i,RT,0,0,117,1,4,99,99,i,0.767355,1,2,117,0,117,0,1,,,,,
,,,,,,,,,,,,,,,,,,,,1,2,2021-01-05_15h18.54.464,CL_C2S3,2020.1.3,Win32,60,,,,,i,1,0.480495,2,media/dknb.png,1,"[1,-1,-1]",2,0,Symb,i,RT,0,0,118,1,4,99,99,i,0.480495,1,2,118,0,118,0,1,,,,,
,,,,,,,,,,,,,,,,,,,,1,2,2021-01-05_15h18.54.464,CL_C2S3,2020.1.3,Win32,60,,,,,h,1,0.47096,1,media/dfnb.png,1,"[1,-1,-1]",1,1,Symb,h,RT,0,0,119,1,4,99,99,h,0.47096,1,2,119,0,119,0,1,,,,,
,,,,,,,,,,,,,,,,,,,,1,2,2021-01-05_15h18.54.464,CL_C2S3,2020.1.3,Win32,60,,,,,,,,,,,,,,,,,,,,,,,,,,,,,,,,,3,0,3,0,1
,,,,,,,,,,,,,,,,,,,,1,2,2021-01-05_15h18.54.464,CL_C2S3,2020.1.3,Win32,60,,,h,8.799135,h,1,0.90719,0,media/dcnb.png,2,"[-1,1,-1]",3,0,Symb,h,RT,0,0,0,1,5,99,99,h,0.90719,1,2,0,0,0,0,1,,,,,
,,,,,,,,,,,,,,,,,,,,1,2,2021-01-05_15h18.54.464,CL_C2S3,2020.1.3,Win32,60,,,,,i,1,0.53168,2,media/dknb.png,1,"[1,-1,-1]",2,0,Symb,i,RT,0,0,1,1,5,99,99,i,0.53168,1,2,1,0,1,0,1,,,,,
,,,,,,,,,,,,,,,,,,,,1,2,2021-01-05_15h18.54.464,CL_C2S3,2020.1.3,Win32,60,,,,,u,1,0.620035,2,media/dknb.png,2,"[-1,1,-1]",5,0,Symb,u,RT,0,0,2,1,5,99,99,u,0.620035,1,2,2,0,2,0,1,,,,,
,,,,,,,,,,,,,,,,,,,,1,2,2021-01-05_15h18.54.464,CL_C2S3,2020.1.3,Win32,60,,,,,u,1,0.431745,2,media/dknb.png,2,"[-1,1,-1]",5,0,Symb,u,RT,0,0,3,1,5,99,99,u,0.431745,1,2,3,0,3,0,1,,,,,
,,,,,,,,,,,,,,,,,,,,1,2,2021-01-05_15h18.54.464,CL_C2S3,2020.1.3,Win32,60,,,,,i,1,3.731385,2,media/dknb.png,1,"[1,-1,-1]",2,0,Symb,i,RT,0,0,4,1,5,99,99,i,3.731385,1,2,4,0,4,0,1,,,,,
,,,,,,,,,,,,,,,,,,,,1,2,2021-01-05_15h18.54.464,CL_C2S3,2020.1.3,Win32,60,,,,,i,1,0.84933,1,media/dfnb.png,2,"[-1,1,-1]",4,1,Symb,i,RT,0,0,5,1,5,99,99,i,0.84933,1,2,5,0,5,0,1,,,,,
,,,,,,,,,,,,,,,,,,,,1,2,2021-01-05_15h18.54.464,CL_C2S3,2020.1.3,Win32,60,,,,,h,0,3.50223,0,media/dcnb.png,1,"[1,-1,-1]",0,0,Symb,u,RT,0,0,6,1,5,99,99,h,3.50223,0,2,6,0,6,0,1,,,,,
,,,,,,,,,,,,,,,,,,,,1,2,2021-01-05_15h18.54.464,CL_C2S3,2020.1.3,Win32,60,,,,,i,1,1.518485,1,media/dfnb.png,2,"[-1,1,-1]",4,1,Symb,i,RT,0,0,7,1,5,99,99,i,1.518485,1,2,7,0,7,0,1,,,,,
,,,,,,,,,,,,,,,,,,,,1,2,2021-01-05_15h18.54.464,CL_C2S3,2020.1.3,Win32,60,,,,,h,1,0.82208,0,media/dcnb.png,2,"[-1,1,-1]",3,0,Symb,h,RT,0,0,8,1,5,99,99,h,0.82208,1,2,8,0,8,0,1,,,,,
,,,,,,,,,,,,,,,,,,,,1,2,2021-01-05_15h18.54.464,CL_C2S3,2020.1.3,Win32,60,,,,,h,1,2.64627,1,media/dfnb.png,1,"[1,-1,-1]",1,1,Symb,h,RT,0,0,9,1,5,99,99,h,2.64627,1,2,9,0,9,0,1,,,,,
,,,,,,,,,,,,,,,,,,,,1,2,2021-01-05_15h18.54.464,CL_C2S3,2020.1.3,Win32,60,,,,,h,1,0.377395,1,media/dfnb.png,1,"[1,-1,-1]",1,1,Symb,h,RT,0,0,10,1,5,99,99,h,0.377395,1,2,10,0,10,0,1,,,,,
,,,,,,,,,,,,,,,,,,,,1,2,2021-01-05_15h18.54.464,CL_C2S3,2020.1.3,Win32,60,,,,,u,1,0.5405,0,media/dcnb.png,1,"[1,-1,-1]",0,0,Symb,u,RT,0,0,11,1,5,99,99,u,0.5405,1,2,11,0,11,0,1,,,,,
,,,,,,,,,,,,,,,,,,,,1,2,2021-01-05_15h18.54.464,CL_C2S3,2020.1.3,Win32,60,,,,,i,1,0.567355,1,media/dfnb.png,2,"[-1,1,-1]",4,1,Symb,i,RT,0,0,12,1,5,99,99,i,0.567355,1,2,12,0,12,0,1,,,,,
,,,,,,,,,,,,,,,,,,,,1,2,2021-01-05_15h18.54.464,CL_C2S3,2020.1.3,Win32,60,,,,,h,1,0.5975,1,media/dfnb.png,1,"[1,-1,-1]",1,1,Symb,h,RT,0,0,13,1,5,99,99,h,0.5975,1,2,13,0,13,0,1,,,,,
,,,,,,,,,,,,,,,,,,,,1,2,2021-01-05_15h18.54.464,CL_C2S3,2020.1.3,Win32,60,,,,,i,1,0.63061,2,media/dknb.png,1,"[1,-1,-1]",2,0,Symb,i,RT,0,0,14,1,5,99,99,i,0.63061,1,2,14,0,14,0,1,,,,,
,,,,,,,,,,,,,,,,,,,,1,2,2021-01-05_15h18.54.464,CL_C2S3,2020.1.3,Win32,60,,,,,u,1,0.381245,2,media/dknb.png,2,"[-1,1,-1]",5,0,Symb,u,RT,0,0,15,1,5,99,99,u,0.381245,1,2,15,0,15,0,1,,,,,
,,,,,,,,,,,,,,,,,,,,1,2,2021-01-05_15h18.54.464,CL_C2S3,2020.1.3,Win32,60,,,,,h,1,0.532575,1,media/dfnb.png,1,"[1,-1,-1]",1,1,Symb,h,RT,0,0,16,1,5,99,99,h,0.532575,1,2,16,0,16,0,1,,,,,
,,,,,,,,,,,,,,,,,,,,1,2,2021-01-05_15h18.54.464,CL_C2S3,2020.1.3,Win32,60,,,,,h,1,0.34659,0,media/dcnb.png,2,"[-1,1,-1]",3,0,Symb,h,RT,0,0,17,1,5,99,99,h,0.34659,1,2,17,0,17,0,1,,,,,
,,,,,,,,,,,,,,,,,,,,1,2,2021-01-05_15h18.54.464,CL_C2S3,2020.1.3,Win32,60,,,,,u,1,0.581195,0,media/dcnb.png,1,"[1,-1,-1]",0,0,Symb,u,RT,0,0,18,1,5,99,99,u,0.581195,1,2,18,0,18,0,1,,,,,
,,,,,,,,,,,,,,,,,,,,1,2,2021-01-05_15h18.54.464,CL_C2S3,2020.1.3,Win32,60,,,,,u,0,0.47967,0,media/dcnb.png,2,"[-1,1,-1]",3,0,Symb,h,RT,0,0,19,1,5,99,99,u,0.47967,0,2,19,0,19,0,1,,,,,
,,,,,,,,,,,,,,,,,,,,1,2,2021-01-05_15h18.54.464,CL_C2S3,2020.1.3,Win32,60,,,,,i,1,0.71331,1,media/dfnb.png,2,"[-1,1,-1]",4,1,Symb,i,RT,0,0,20,1,5,99,99,i,0.71331,1,2,20,0,20,0,1,,,,,
,,,,,,,,,,,,,,,,,,,,1,2,2021-01-05_15h18.54.464,CL_C2S3,2020.1.3,Win32,60,,,,,i,1,0.569595,2,media/dknb.png,1,"[1,-1,-1]",2,0,Symb,i,RT,0,0,21,1,5,99,99,i,0.569595,1,2,21,0,21,0,1,,,,,
,,,,,,,,,,,,,,,,,,,,1,2,2021-01-05_15h18.54.464,CL_C2S3,2020.1.3,Win32,60,,,,,u,1,0.977575,0,media/dcnb.png,1,"[1,-1,-1]",0,0,Symb,u,RT,0,0,22,1,5,99,99,u,0.977575,1,2,22,0,22,0,1,,,,,
,,,,,,,,,,,,,,,,,,,,1,2,2021-01-05_15h18.54.464,CL_C2S3,2020.1.3,Win32,60,,,,,u,1,0.756045,2,media/dknb.png,2,"[-1,1,-1]",5,0,Symb,u,RT,0,0,23,1,5,99,99,u,0.756045,1,2,23,0,23,0,1,,,,,
,,,,,,,,,,,,,,,,,,,,1,2,2021-01-05_15h18.54.464,CL_C2S3,2020.1.3,Win32,60,,,,,u,0,0.392355,2,media/dknb.png,1,"[1,-1,-1]",2,0,Symb,i,RT,0,0,24,1,5,99,99,u,0.392355,0,2,24,0,24,0,1,,,,,
,,,,,,,,,,,,,,,,,,,,1,2,2021-01-05_15h18.54.464,CL_C2S3,2020.1.3,Win32,60,,,,,h,1,0.780665,1,media/dfnb.png,1,"[1,-1,-1]",1,1,Symb,h,RT,0,0,25,1,5,99,99,h,0.780665,1,2,25,0,25,0,1,,,,,
,,,,,,,,,,,,,,,,,,,,1,2,2021-01-05_15h18.54.464,CL_C2S3,2020.1.3,Win32,60,,,,,u,1,0.785745,2,media/dknb.png,2,"[-1,1,-1]",5,0,Symb,u,RT,0,0,26,1,5,99,99,u,0.785745,1,2,26,0,26,0,1,,,,,
,,,,,,,,,,,,,,,,,,,,1,2,2021-01-05_15h18.54.464,CL_C2S3,2020.1.3,Win32,60,,,,,h,0,0.94784,1,media/dfnb.png,2,"[-1,1,-1]",4,1,Symb,i,RT,0,0,27,1,5,99,99,h,0.94784,0,2,27,0,27,0,1,,,,,
,,,,,,,,,,,,,,,,,,,,1,2,2021-01-05_15h18.54.464,CL_C2S3,2020.1.3,Win32,60,,,,,u,1,0.83315,0,media/dcnb.png,1,"[1,-1,-1]",0,0,Symb,u,RT,0,0,28,1,5,99,99,u,0.83315,1,2,28,0,28,0,1,,,,,
,,,,,,,,,,,,,,,,,,,,1,2,2021-01-05_15h18.54.464,CL_C2S3,2020.1.3,Win32,60,,,,,h,1,0.72573,0,media/dcnb.png,2,"[-1,1,-1]",3,0,Symb,h,RT,0,0,29,1,5,99,99,h,0.72573,1,2,29,0,29,0,1,,,,,
,,,,,,,,,,,,,,,,,,,,1,2,2021-01-05_15h18.54.464,CL_C2S3,2020.1.3,Win32,60,,,,,u,1,0.631645,0,media/dcnb.png,1,"[1,-1,-1]",0,0,Symb,u,RT,0,0,30,1,5,99,99,u,0.631645,1,2,30,0,30,0,1,,,,,
,,,,,,,,,,,,,,,,,,,,1,2,2021-01-05_15h18.54.464,CL_C2S3,2020.1.3,Win32,60,,,,,i,0,0.713565,2,media/dknb.png,2,"[-1,1,-1]",5,0,Symb,u,RT,0,0,31,1,5,99,99,i,0.713565,0,2,31,0,31,0,1,,,,,
,,,,,,,,,,,,,,,,,,,,1,2,2021-01-05_15h18.54.464,CL_C2S3,2020.1.3,Win32,60,,,,,i,1,3.199365,2,media/dknb.png,1,"[1,-1,-1]",2,0,Symb,i,RT,0,0,32,1,5,99,99,i,3.199365,1,2,32,0,32,0,1,,,,,
,,,,,,,,,,,,,,,,,,,,1,2,2021-01-05_15h18.54.464,CL_C2S3,2020.1.3,Win32,60,,,,,h,1,1.132145,1,media/dfnb.png,1,"[1,-1,-1]",1,1,Symb,h,RT,0,0,33,1,5,99,99,h,1.132145,1,2,33,0,33,0,1,,,,,
,,,,,,,,,,,,,,,,,,,,1,2,2021-01-05_15h18.54.464,CL_C2S3,2020.1.3,Win32,60,,,,,i,1,0.7278,2,media/dknb.png,1,"[1,-1,-1]",2,0,Symb,i,RT,0,0,34,1,5,99,99,i,0.7278,1,2,34,0,34,0,1,,,,,
,,,,,,,,,,,,,,,,,,,,1,2,2021-01-05_15h18.54.464,CL_C2S3,2020.1.3,Win32,60,,,,,h,1,0.599525,1,media/dfnb.png,1,"[1,-1,-1]",1,1,Symb,h,RT,0,0,35,1,5,99,99,h,0.599525,1,2,35,0,35,0,1,,,,,
,,,,,,,,,,,,,,,,,,,,1,2,2021-01-05_15h18.54.464,CL_C2S3,2020.1.3,Win32,60,,,,,u,0,0.616665,0,media/dcnb.png,2,"[-1,1,-1]",3,0,Symb,h,RT,0,0,36,1,5,99,99,u,0.616665,0,2,36,0,36,0,1,,,,,
,,,,,,,,,,,,,,,,,,,,1,2,2021-01-05_15h18.54.464,CL_C2S3,2020.1.3,Win32,60,,,,,i,1,0.771315,1,media/dfnb.png,2,"[-1,1,-1]",4,1,Symb,i,RT,0,0,37,1,5,99,99,i,0.771315,1,2,37,0,37,0,1,,,,,
,,,,,,,,,,,,,,,,,,,,1,2,2021-01-05_15h18.54.464,CL_C2S3,2020.1.3,Win32,60,,,,,u,1,0.86528,0,media/dcnb.png,1,"[1,-1,-1]",0,0,Symb,u,RT,0,0,38,1,5,99,99,u,0.86528,1,2,38,0,38,0,1,,,,,
,,,,,,,,,,,,,,,,,,,,1,2,2021-01-05_15h18.54.464,CL_C2S3,2020.1.3,Win32,60,,,,,h,1,0.536565,0,media/dcnb.png,2,"[-1,1,-1]",3,0,Symb,h,RT,0,0,39,1,5,99,99,h,0.536565,1,2,39,0,39,0,1,,,,,
,,,,,,,,,,,,,,,,,,,,1,2,2021-01-05_15h18.54.464,CL_C2S3,2020.1.3,Win32,60,,,,,i,1,0.932455,1,media/dfnb.png,2,"[-1,1,-1]",4,1,Symb,i,RT,0,0,40,1,5,99,99,i,0.932455,1,2,40,0,40,0,1,,,,,
,,,,,,,,,,,,,,,,,,,,1,2,2021-01-05_15h18.54.464,CL_C2S3,2020.1.3,Win32,60,,,,,i,0,0.6806,2,media/dknb.png,2,"[-1,1,-1]",5,0,Symb,u,RT,0,0,41,1,5,99,99,i,0.6806,0,2,41,0,41,0,1,,,,,
,,,,,,,,,,,,,,,,,,,,1,2,2021-01-05_15h18.54.464,CL_C2S3,2020.1.3,Win32,60,,,,,u,0,1.513815,1,media/dfnb.png,1,"[1,-1,-1]",1,1,Symb,h,RT,0,0,42,1,5,99,99,u,1.513815,0,2,42,0,42,0,1,,,,,
,,,,,,,,,,,,,,,,,,,,1,2,2021-01-05_15h18.54.464,CL_C2S3,2020.1.3,Win32,60,,,,,i,1,0.600055,1,media/dfnb.png,2,"[-1,1,-1]",4,1,Symb,i,RT,0,0,43,1,5,99,99,i,0.600055,1,2,43,0,43,0,1,,,,,
,,,,,,,,,,,,,,,,,,,,1,2,2021-01-05_15h18.54.464,CL_C2S3,2020.1.3,Win32,60,,,,,u,1,0.64697,0,media/dcnb.png,1,"[1,-1,-1]",0,0,Symb,u,RT,0,0,44,1,5,99,99,u,0.64697,1,2,44,0,44,0,1,,,,,
,,,,,,,,,,,,,,,,,,,,1,2,2021-01-05_15h18.54.464,CL_C2S3,2020.1.3,Win32,60,,,,,h,1,0.898235,0,media/dcnb.png,2,"[-1,1,-1]",3,0,Symb,h,RT,0,0,45,1,5,99,99,h,0.898235,1,2,45,0,45,0,1,,,,,
,,,,,,,,,,,,,,,,,,,,1,2,2021-01-05_15h18.54.464,CL_C2S3,2020.1.3,Win32,60,,,,,i,1,0.84219,1,media/dfnb.png,2,"[-1,1,-1]",4,1,Symb,i,RT,0,0,46,1,5,99,99,i,0.84219,1,2,46,0,46,0,1,,,,,
,,,,,,,,,,,,,,,,,,,,1,2,2021-01-05_15h18.54.464,CL_C2S3,2020.1.3,Win32,60,,,,,h,1,0.604485,1,media/dfnb.png,1,"[1,-1,-1]",1,1,Symb,h,RT,0,0,47,1,5,99,99,h,0.604485,1,2,47,0,47,0,1,,,,,
,,,,,,,,,,,,,,,,,,,,1,2,2021-01-05_15h18.54.464,CL_C2S3,2020.1.3,Win32,60,,,,,u,1,1.695915,2,media/dknb.png,2,"[-1,1,-1]",5,0,Symb,u,RT,0,0,48,1,5,99,99,u,1.695915,1,2,48,0,48,0,1,,,,,
,,,,,,,,,,,,,,,,,,,,1,2,2021-01-05_15h18.54.464,CL_C2S3,2020.1.3,Win32,60,,,,,u,1,0.33937,2,media/dknb.png,2,"[-1,1,-1]",5,0,Symb,u,RT,0,0,49,1,5,99,99,u,0.33937,1,2,49,0,49,0,1,,,,,
,,,,,,,,,,,,,,,,,,,,1,2,2021-01-05_15h18.54.464,CL_C2S3,2020.1.3,Win32,60,,,,,i,1,0.540145,2,media/dknb.png,1,"[1,-1,-1]",2,0,Symb,i,RT,0,0,50,1,5,99,99,i,0.540145,1,2,50,0,50,0,1,,,,,
,,,,,,,,,,,,,,,,,,,,1,2,2021-01-05_15h18.54.464,CL_C2S3,2020.1.3,Win32,60,,,,,i,1,0.32551,2,media/dknb.png,1,"[1,-1,-1]",2,0,Symb,i,RT,0,0,51,1,5,99,99,i,0.32551,1,2,51,0,51,0,1,,,,,
