Ctx_Color_List,stim_key_map_ctx1,stim_key_map_ctx2,stim_key_remap_ctx1,stim_key_remap_ctx2,Import_File.thisRepN,Import_File.thisTrialN,Import_File.thisN,Import_File.thisIndex,Import_File.ran,Stim,Ctx_Color,Key,KeyNum,imStim,X_Pos,Y_Pos,Hand,Check,Cross,participant,session,date,expName,psychopyVersion,OS,frameRate,Instr_Exp_Key.keys,Instr_Exp_Key.rt,Instr_Exp_Bool.thisRepN,Instr_Exp_Bool.thisTrialN,Instr_Exp_Bool.thisN,Instr_Exp_Bool.thisIndex,Instr_Exp_Bool.ran,Instr_RT_Hand_Key.keys,Instr_RT_Hand_Key.rt,RT_Press_Hand.keys,RT_Press_Hand.corr,RT_Press_Hand.rt,Symbol,Ctx,Color,Stim_Num,Key_Num,Stim_Type,True_Key,Block_Type,Remap,Repeat_Count,Trial_Count,Grp,Block_Num,Prep_Time,Ctx_Prep_Time,Actual_Press,RT,Correct,Session,RT_Iter_Hand.thisRepN,RT_Iter_Hand.thisTrialN,RT_Iter_Hand.thisN,RT_Iter_Hand.thisIndex,RT_Iter_Hand.ran,Instr_HAND_TR_press.keys,Instr_HAND_TR_press.rt,Instr_Block_Num_Press.keys,Instr_Block_Num_Press.rt,TR_Press_Hand.keys,TR_Press_Hand.corr,TR_Press_Hand.rt,TR_Feedback_Bool_Hand.thisRepN,TR_Feedback_Bool_Hand.thisTrialN,TR_Feedback_Bool_Hand.thisN,TR_Feedback_Bool_Hand.thisIndex,TR_Feedback_Bool_Hand.ran,TR_Iter_Hand.thisRepN,TR_Iter_Hand.thisTrialN,TR_Iter_Hand.thisN,TR_Iter_Hand.thisIndex,TR_Iter_Hand.ran,TR_Penalty_Press.keys,TR_Penalty_Press.rt,TR_Penalty_Bool_Hand.thisRepN,TR_Penalty_Bool_Hand.thisTrialN,TR_Penalty_Bool_Hand.thisN,TR_Penalty_Bool_Hand.thisIndex,TR_Penalty_Bool_Hand.ran,TR_Block_Hand.thisRepN,TR_Block_Hand.thisTrialN,TR_Block_Hand.thisN,TR_Block_Hand.thisIndex,TR_Block_Hand.ran,Instr_CR_Old_Press.keys,Instr_CR_Old_Press.rt,RT_Press.keys,RT_Press.corr,RT_Press.rt,Shape,CR_Old_Iter.thisRepN,CR_Old_Iter.thisTrialN,CR_Old_Iter.thisN,CR_Old_Iter.thisIndex,CR_Old_Iter.ran,Instr_RT_Old_Press.keys,Instr_RT_Old_Press.rt,RT_Old_Iter.thisRepN,RT_Old_Iter.thisTrialN,RT_Old_Iter.thisN,RT_Old_Iter.thisIndex,RT_Old_Iter.ran,RT_Old_Block.thisRepN,RT_Old_Block.thisTrialN,RT_Old_Block.thisN,RT_Old_Block.thisIndex,RT_Old_Block.ran,Instr_TR_Old_Press.keys,Instr_TR_Old_Press.rt,TR_Press.keys,TR_Press.corr,TR_Press.rt,TR_Feedback_Old_Bool.thisRepN,TR_Feedback_Old_Bool.thisTrialN,TR_Feedback_Old_Bool.thisN,TR_Feedback_Old_Bool.thisIndex,TR_Feedback_Old_Bool.ran,TR_Old_Iter.thisRepN,TR_Old_Iter.thisTrialN,TR_Old_Iter.thisN,TR_Old_Iter.thisIndex,TR_Old_Iter.ran,TR_Penalty_Old_Bool.thisRepN,TR_Penalty_Old_Bool.thisTrialN,TR_Penalty_Old_Bool.thisN,TR_Penalty_Old_Bool.thisIndex,TR_Penalty_Old_Bool.ran,TR_Old_Block.thisRepN,TR_Old_Block.thisTrialN,TR_Old_Block.thisN,TR_Old_Block.thisIndex,TR_Old_Block.ran
"[[1,-1,-1],[-1,1,-1]]","[1,0,2]","[0,2,1]","[0,2,1]","[1,0,2]",0,0,0,0,1,0,"[1, -1, -1]",h,0,media/dcnb.png,-0.038,0.075,media/hand.png,media/check.png,media/cross.png,1,1,2021-01-05_00h41.05.539,CL_C2S3,2020.1.3,Win32,60,,,,,,,,,,,,,,,,,,,,,,,,,,,,,,,,,,,,,,,,,,,,,,,,,,,,,,,,,,,,,,,,,,,,,,,,,,,,,,,,,,,,,,,,,,,,,,,,,,,,,,,,,,,,,,,,,
"[[1,-1,-1],[-1,1,-1],[1,-1,-1],[-1,1,-1]]","[1,0,2]","[0,2,1]","[0,2,1]","[1,0,2]",0,1,1,1,1,1,"[-1, 1, -1]",u,1,media/dfnb.png,0.014,0.1,,,,1,1,2021-01-05_00h41.05.539,CL_C2S3,2020.1.3,Win32,60,,,,,,,,,,,,,,,,,,,,,,,,,,,,,,,,,,,,,,,,,,,,,,,,,,,,,,,,,,,,,,,,,,,,,,,,,,,,,,,,,,,,,,,,,,,,,,,,,,,,,,,,,,,,,,,,,
"[[1,-1,-1],[-1,1,-1],[1,-1,-1],[-1,1,-1],[1,-1,-1],[-1,1,-1]]","[1,0,2]","[0,2,1]","[0,2,1]","[1,0,2]",0,2,2,2,1,2,,i,0,media/dknb.png,0.057,0.08,,,,1,1,2021-01-05_00h41.05.539,CL_C2S3,2020.1.3,Win32,60,,,,,,,,,,,,,,,,,,,,,,,,,,,,,,,,,,,,,,,,,,,,,,,,,,,,,,,,,,,,,,,,,,,,,,,,,,,,,,,,,,,,,,,,,,,,,,,,,,,,,,,,,,,,,,,,,
,,,,,,,,,,,,,,,,,,,,1,1,2021-01-05_00h41.05.539,CL_C2S3,2020.1.3,Win32,60,space,18.394255,0,0,0,0,1,,,,,,,,,,,,,,,,,,,,,,,,,,,,,,,,,,,,,,,,,,,,,,,,,,,,,,,,,,,,,,,,,,,,,,,,,,,,,,,,,,,,,,,,,,,,,,,,,,,,,,,,,,
,,,,,,,,,,,,,,,,,,,,1,1,2021-01-05_00h41.05.539,CL_C2S3,2020.1.3,Win32,60,,,,,,,,h,21.34687,i,1,0.58208,2,0,"[99,99,99]",2,0,Hand,i,RT,0,0,1,1,1,99,99,i,0.58208,1,1,0,0,0,0,1,,,,,,,,,,,,,,,,,,,,,,,,,,,,,,,,,,,,,,,,,,,,,,,,,,,,,,,,,,,,,,,,,,,,,,,,,,,,,
,,,,,,,,,,,,,,,,,,,,1,1,2021-01-05_00h41.05.539,CL_C2S3,2020.1.3,Win32,60,,,,,,,,,,h,1,0.365565,0,0,"[99,99,99]",0,0,Hand,h,RT,0,0,2,1,1,99,99,h,0.365565,1,1,1,0,1,0,1,,,,,,,,,,,,,,,,,,,,,,,,,,,,,,,,,,,,,,,,,,,,,,,,,,,,,,,,,,,,,,,,,,,,,,,,,,,,,
,,,,,,,,,,,,,,,,,,,,1,1,2021-01-05_00h41.05.539,CL_C2S3,2020.1.3,Win32,60,,,,,,,,,,i,1,0.398515,2,0,"[99,99,99]",2,0,Hand,i,RT,0,0,3,1,1,99,99,i,0.398515,1,1,2,0,2,0,1,,,,,,,,,,,,,,,,,,,,,,,,,,,,,,,,,,,,,,,,,,,,,,,,,,,,,,,,,,,,,,,,,,,,,,,,,,,,,
,,,,,,,,,,,,,,,,,,,,1,1,2021-01-05_00h41.05.539,CL_C2S3,2020.1.3,Win32,60,,,,,,,,,,u,1,0.2815,1,0,"[99,99,99]",1,1,Hand,u,RT,0,0,4,1,1,99,99,u,0.2815,1,1,3,0,3,0,1,,,,,,,,,,,,,,,,,,,,,,,,,,,,,,,,,,,,,,,,,,,,,,,,,,,,,,,,,,,,,,,,,,,,,,,,,,,,,
,,,,,,,,,,,,,,,,,,,,1,1,2021-01-05_00h41.05.539,CL_C2S3,2020.1.3,Win32,60,,,,,,,,,,h,1,0.32356,0,0,"[99,99,99]",0,0,Hand,h,RT,0,0,5,1,1,99,99,h,0.32356,1,1,4,0,4,0,1,,,,,,,,,,,,,,,,,,,,,,,,,,,,,,,,,,,,,,,,,,,,,,,,,,,,,,,,,,,,,,,,,,,,,,,,,,,,,
,,,,,,,,,,,,,,,,,,,,1,1,2021-01-05_00h41.05.539,CL_C2S3,2020.1.3,Win32,60,,,,,,,,,,u,1,0.33365,1,0,"[99,99,99]",1,1,Hand,u,RT,0,0,6,1,1,99,99,u,0.33365,1,1,5,0,5,0,1,,,,,,,,,,,,,,,,,,,,,,,,,,,,,,,,,,,,,,,,,,,,,,,,,,,,,,,,,,,,,,,,,,,,,,,,,,,,,
,,,,,,,,,,,,,,,,,,,,1,1,2021-01-05_00h41.05.539,CL_C2S3,2020.1.3,Win32,60,,,,,,,,,,u,1,0.38924,1,0,"[99,99,99]",1,1,Hand,u,RT,0,0,7,1,1,99,99,u,0.38924,1,1,6,0,6,0,1,,,,,,,,,,,,,,,,,,,,,,,,,,,,,,,,,,,,,,,,,,,,,,,,,,,,,,,,,,,,,,,,,,,,,,,,,,,,,
,,,,,,,,,,,,,,,,,,,,1,1,2021-01-05_00h41.05.539,CL_C2S3,2020.1.3,Win32,60,,,,,,,,,,i,1,0.328315,2,0,"[99,99,99]",2,0,Hand,i,RT,0,0,8,1,1,99,99,i,0.328315,1,1,7,0,7,0,1,,,,,,,,,,,,,,,,,,,,,,,,,,,,,,,,,,,,,,,,,,,,,,,,,,,,,,,,,,,,,,,,,,,,,,,,,,,,,
,,,,,,,,,,,,,,,,,,,,1,1,2021-01-05_00h41.05.539,CL_C2S3,2020.1.3,Win32,60,,,,,,,,,,u,1,0.352955,1,0,"[99,99,99]",1,1,Hand,u,RT,0,0,9,1,1,99,99,u,0.352955,1,1,8,0,8,0,1,,,,,,,,,,,,,,,,,,,,,,,,,,,,,,,,,,,,,,,,,,,,,,,,,,,,,,,,,,,,,,,,,,,,,,,,,,,,,
,,,,,,,,,,,,,,,,,,,,1,1,2021-01-05_00h41.05.539,CL_C2S3,2020.1.3,Win32,60,,,,,,,,,,h,1,0.28699,0,0,"[99,99,99]",0,0,Hand,h,RT,0,0,10,1,1,99,99,h,0.28699,1,1,9,0,9,0,1,,,,,,,,,,,,,,,,,,,,,,,,,,,,,,,,,,,,,,,,,,,,,,,,,,,,,,,,,,,,,,,,,,,,,,,,,,,,,
,,,,,,,,,,,,,,,,,,,,1,1,2021-01-05_00h41.05.539,CL_C2S3,2020.1.3,Win32,60,,,,,,,,,,h,1,0.35967,0,0,"[99,99,99]",0,0,Hand,h,RT,0,0,11,1,1,99,99,h,0.35967,1,1,10,0,10,0,1,,,,,,,,,,,,,,,,,,,,,,,,,,,,,,,,,,,,,,,,,,,,,,,,,,,,,,,,,,,,,,,,,,,,,,,,,,,,,
,,,,,,,,,,,,,,,,,,,,1,1,2021-01-05_00h41.05.539,CL_C2S3,2020.1.3,Win32,60,,,,,,,,,,i,1,0.362565,2,0,"[99,99,99]",2,0,Hand,i,RT,0,0,12,1,1,99,99,i,0.362565,1,1,11,0,11,0,1,,,,,,,,,,,,,,,,,,,,,,,,,,,,,,,,,,,,,,,,,,,,,,,,,,,,,,,,,,,,,,,,,,,,,,,,,,,,,
,,,,,,,,,,,,,,,,,,,,1,1,2021-01-05_00h41.05.539,CL_C2S3,2020.1.3,Win32,60,,,,,,,,,,i,1,0.328625,2,0,"[99,99,99]",2,0,Hand,i,RT,0,0,13,1,1,99,99,i,0.328625,1,1,12,0,12,0,1,,,,,,,,,,,,,,,,,,,,,,,,,,,,,,,,,,,,,,,,,,,,,,,,,,,,,,,,,,,,,,,,,,,,,,,,,,,,,
,,,,,,,,,,,,,,,,,,,,1,1,2021-01-05_00h41.05.539,CL_C2S3,2020.1.3,Win32,60,,,,,,,,,,h,1,0.33899,0,0,"[99,99,99]",0,0,Hand,h,RT,0,0,14,1,1,99,99,h,0.33899,1,1,13,0,13,0,1,,,,,,,,,,,,,,,,,,,,,,,,,,,,,,,,,,,,,,,,,,,,,,,,,,,,,,,,,,,,,,,,,,,,,,,,,,,,,
,,,,,,,,,,,,,,,,,,,,1,1,2021-01-05_00h41.05.539,CL_C2S3,2020.1.3,Win32,60,,,,,,,,,,u,1,0.25806,1,0,"[99,99,99]",1,1,Hand,u,RT,0,0,15,1,1,99,99,u,0.25806,1,1,14,0,14,0,1,,,,,,,,,,,,,,,,,,,,,,,,,,,,,,,,,,,,,,,,,,,,,,,,,,,,,,,,,,,,,,,,,,,,,,,,,,,,,
,,,,,,,,,,,,,,,,,,,,1,1,2021-01-05_00h41.05.539,CL_C2S3,2020.1.3,Win32,60,,,,,,,,,,i,1,0.333895,2,0,"[99,99,99]",2,0,Hand,i,RT,0,0,16,1,1,99,99,i,0.333895,1,1,15,0,15,0,1,,,,,,,,,,,,,,,,,,,,,,,,,,,,,,,,,,,,,,,,,,,,,,,,,,,,,,,,,,,,,,,,,,,,,,,,,,,,,
,,,,,,,,,,,,,,,,,,,,1,1,2021-01-05_00h41.05.539,CL_C2S3,2020.1.3,Win32,60,,,,,,,,,,i,1,0.38314,2,0,"[99,99,99]",2,0,Hand,i,RT,0,0,17,1,1,99,99,i,0.38314,1,1,16,0,16,0,1,,,,,,,,,,,,,,,,,,,,,,,,,,,,,,,,,,,,,,,,,,,,,,,,,,,,,,,,,,,,,,,,,,,,,,,,,,,,,
,,,,,,,,,,,,,,,,,,,,1,1,2021-01-05_00h41.05.539,CL_C2S3,2020.1.3,Win32,60,,,,,,,,,,u,1,0.350025,1,0,"[99,99,99]",1,1,Hand,u,RT,0,0,18,1,1,99,99,u,0.350025,1,1,17,0,17,0,1,,,,,,,,,,,,,,,,,,,,,,,,,,,,,,,,,,,,,,,,,,,,,,,,,,,,,,,,,,,,,,,,,,,,,,,,,,,,,
,,,,,,,,,,,,,,,,,,,,1,1,2021-01-05_00h41.05.539,CL_C2S3,2020.1.3,Win32,60,,,,,,,,,,h,1,0.262425,0,0,"[99,99,99]",0,0,Hand,h,RT,0,0,19,1,1,99,99,h,0.262425,1,1,18,0,18,0,1,,,,,,,,,,,,,,,,,,,,,,,,,,,,,,,,,,,,,,,,,,,,,,,,,,,,,,,,,,,,,,,,,,,,,,,,,,,,,
,,,,,,,,,,,,,,,,,,,,1,1,2021-01-05_00h41.05.539,CL_C2S3,2020.1.3,Win32,60,,,,,,,,,,h,1,0.35655,0,0,"[99,99,99]",0,0,Hand,h,RT,0,0,20,1,1,99,99,h,0.35655,1,1,19,0,19,0,1,,,,,,,,,,,,,,,,,,,,,,,,,,,,,,,,,,,,,,,,,,,,,,,,,,,,,,,,,,,,,,,,,,,,,,,,,,,,,
,,,,,,,,,,,,,,,,,,,,1,1,2021-01-05_00h41.05.539,CL_C2S3,2020.1.3,Win32,60,,,,,,,,,,u,1,0.25707,1,0,"[99,99,99]",1,1,Hand,u,RT,0,0,21,1,1,99,99,u,0.25707,1,1,20,0,20,0,1,,,,,,,,,,,,,,,,,,,,,,,,,,,,,,,,,,,,,,,,,,,,,,,,,,,,,,,,,,,,,,,,,,,,,,,,,,,,,
,,,,,,,,,,,,,,,,,,,,1,1,2021-01-05_00h41.05.539,CL_C2S3,2020.1.3,Win32,60,,,,,,,,,,h,1,0.338485,0,0,"[99,99,99]",0,0,Hand,h,RT,0,0,22,1,1,99,99,h,0.338485,1,1,21,0,21,0,1,,,,,,,,,,,,,,,,,,,,,,,,,,,,,,,,,,,,,,,,,,,,,,,,,,,,,,,,,,,,,,,,,,,,,,,,,,,,,
,,,,,,,,,,,,,,,,,,,,1,1,2021-01-05_00h41.05.539,CL_C2S3,2020.1.3,Win32,60,,,,,,,,,,u,0,0.253965,2,0,"[99,99,99]",2,0,Hand,i,RT,0,0,23,1,1,99,99,u,0.253965,0,1,22,0,22,0,1,,,,,,,,,,,,,,,,,,,,,,,,,,,,,,,,,,,,,,,,,,,,,,,,,,,,,,,,,,,,,,,,,,,,,,,,,,,,,
,,,,,,,,,,,,,,,,,,,,1,1,2021-01-05_00h41.05.539,CL_C2S3,2020.1.3,Win32,60,,,,,,,,,,h,1,0.31805,0,0,"[99,99,99]",0,0,Hand,h,RT,0,0,24,1,1,99,99,h,0.31805,1,1,23,0,23,0,1,,,,,,,,,,,,,,,,,,,,,,,,,,,,,,,,,,,,,,,,,,,,,,,,,,,,,,,,,,,,,,,,,,,,,,,,,,,,,
,,,,,,,,,,,,,,,,,,,,1,1,2021-01-05_00h41.05.539,CL_C2S3,2020.1.3,Win32,60,,,,,,,,,,u,1,0.326265,1,0,"[99,99,99]",1,1,Hand,u,RT,0,0,25,1,1,99,99,u,0.326265,1,1,24,0,24,0,1,,,,,,,,,,,,,,,,,,,,,,,,,,,,,,,,,,,,,,,,,,,,,,,,,,,,,,,,,,,,,,,,,,,,,,,,,,,,,
,,,,,,,,,,,,,,,,,,,,1,1,2021-01-05_00h41.05.539,CL_C2S3,2020.1.3,Win32,60,,,,,,,,,,i,1,0.34116,2,0,"[99,99,99]",2,0,Hand,i,RT,0,0,26,1,1,99,99,i,0.34116,1,1,25,0,25,0,1,,,,,,,,,,,,,,,,,,,,,,,,,,,,,,,,,,,,,,,,,,,,,,,,,,,,,,,,,,,,,,,,,,,,,,,,,,,,,
,,,,,,,,,,,,,,,,,,,,1,1,2021-01-05_00h41.05.539,CL_C2S3,2020.1.3,Win32,60,,,,,,,,,,u,1,0.32372,1,0,"[99,99,99]",1,1,Hand,u,RT,0,0,27,1,1,99,99,u,0.32372,1,1,26,0,26,0,1,,,,,,,,,,,,,,,,,,,,,,,,,,,,,,,,,,,,,,,,,,,,,,,,,,,,,,,,,,,,,,,,,,,,,,,,,,,,,
,,,,,,,,,,,,,,,,,,,,1,1,2021-01-05_00h41.05.539,CL_C2S3,2020.1.3,Win32,60,,,,,,,,,,i,1,0.361875,2,0,"[99,99,99]",2,0,Hand,i,RT,0,0,28,1,1,99,99,i,0.361875,1,1,27,0,27,0,1,,,,,,,,,,,,,,,,,,,,,,,,,,,,,,,,,,,,,,,,,,,,,,,,,,,,,,,,,,,,,,,,,,,,,,,,,,,,,
,,,,,,,,,,,,,,,,,,,,1,1,2021-01-05_00h41.05.539,CL_C2S3,2020.1.3,Win32,60,,,,,,,,,,u,1,0.342925,1,0,"[99,99,99]",1,1,Hand,u,RT,0,0,29,1,1,99,99,u,0.342925,1,1,28,0,28,0,1,,,,,,,,,,,,,,,,,,,,,,,,,,,,,,,,,,,,,,,,,,,,,,,,,,,,,,,,,,,,,,,,,,,,,,,,,,,,,
,,,,,,,,,,,,,,,,,,,,1,1,2021-01-05_00h41.05.539,CL_C2S3,2020.1.3,Win32,60,,,,,,,,,,h,1,0.368935,0,0,"[99,99,99]",0,0,Hand,h,RT,0,0,30,1,1,99,99,h,0.368935,1,1,29,0,29,0,1,,,,,,,,,,,,,,,,,,,,,,,,,,,,,,,,,,,,,,,,,,,,,,,,,,,,,,,,,,,,,,,,,,,,,,,,,,,,,
,,,,,,,,,,,,,,,,,,,,1,1,2021-01-05_00h41.05.539,CL_C2S3,2020.1.3,Win32,60,,,,,,,,,,h,1,0.30544,0,0,"[99,99,99]",0,0,Hand,h,RT,0,0,31,1,1,99,99,h,0.30544,1,1,30,0,30,0,1,,,,,,,,,,,,,,,,,,,,,,,,,,,,,,,,,,,,,,,,,,,,,,,,,,,,,,,,,,,,,,,,,,,,,,,,,,,,,
,,,,,,,,,,,,,,,,,,,,1,1,2021-01-05_00h41.05.539,CL_C2S3,2020.1.3,Win32,60,,,,,,,,,,i,1,0.409205,2,0,"[99,99,99]",2,0,Hand,i,RT,0,0,32,1,1,99,99,i,0.409205,1,1,31,0,31,0,1,,,,,,,,,,,,,,,,,,,,,,,,,,,,,,,,,,,,,,,,,,,,,,,,,,,,,,,,,,,,,,,,,,,,,,,,,,,,,
,,,,,,,,,,,,,,,,,,,,1,1,2021-01-05_00h41.05.539,CL_C2S3,2020.1.3,Win32,60,,,,,,,,,,h,1,0.30688,0,0,"[99,99,99]",0,0,Hand,h,RT,0,0,33,1,1,99,99,h,0.30688,1,1,32,0,32,0,1,,,,,,,,,,,,,,,,,,,,,,,,,,,,,,,,,,,,,,,,,,,,,,,,,,,,,,,,,,,,,,,,,,,,,,,,,,,,,
,,,,,,,,,,,,,,,,,,,,1,1,2021-01-05_00h41.05.539,CL_C2S3,2020.1.3,Win32,60,,,,,,,,,,i,1,0.372545,2,0,"[99,99,99]",2,0,Hand,i,RT,0,0,34,1,1,99,99,i,0.372545,1,1,33,0,33,0,1,,,,,,,,,,,,,,,,,,,,,,,,,,,,,,,,,,,,,,,,,,,,,,,,,,,,,,,,,,,,,,,,,,,,,,,,,,,,,
,,,,,,,,,,,,,,,,,,,,1,1,2021-01-05_00h41.05.539,CL_C2S3,2020.1.3,Win32,60,,,,,,,,,,u,1,0.441095,1,0,"[99,99,99]",1,1,Hand,u,RT,0,0,35,1,1,99,99,u,0.441095,1,1,34,0,34,0,1,,,,,,,,,,,,,,,,,,,,,,,,,,,,,,,,,,,,,,,,,,,,,,,,,,,,,,,,,,,,,,,,,,,,,,,,,,,,,
,,,,,,,,,,,,,,,,,,,,1,1,2021-01-05_00h41.05.539,CL_C2S3,2020.1.3,Win32,60,,,,,,,,,,u,1,0.28451,1,0,"[99,99,99]",1,1,Hand,u,RT,0,0,36,1,1,99,99,u,0.28451,1,1,35,0,35,0,1,,,,,,,,,,,,,,,,,,,,,,,,,,,,,,,,,,,,,,,,,,,,,,,,,,,,,,,,,,,,,,,,,,,,,,,,,,,,,
,,,,,,,,,,,,,,,,,,,,1,1,2021-01-05_00h41.05.539,CL_C2S3,2020.1.3,Win32,60,,,,,,,,,,u,1,0.30383,1,0,"[99,99,99]",1,1,Hand,u,RT,0,0,37,1,1,99,99,u,0.30383,1,1,36,0,36,0,1,,,,,,,,,,,,,,,,,,,,,,,,,,,,,,,,,,,,,,,,,,,,,,,,,,,,,,,,,,,,,,,,,,,,,,,,,,,,,
,,,,,,,,,,,,,,,,,,,,1,1,2021-01-05_00h41.05.539,CL_C2S3,2020.1.3,Win32,60,,,,,,,,,,h,1,0.318855,0,0,"[99,99,99]",0,0,Hand,h,RT,0,0,38,1,1,99,99,h,0.318855,1,1,37,0,37,0,1,,,,,,,,,,,,,,,,,,,,,,,,,,,,,,,,,,,,,,,,,,,,,,,,,,,,,,,,,,,,,,,,,,,,,,,,,,,,,
,,,,,,,,,,,,,,,,,,,,1,1,2021-01-05_00h41.05.539,CL_C2S3,2020.1.3,Win32,60,,,,,,,,,,h,1,0.325095,0,0,"[99,99,99]",0,0,Hand,h,RT,0,0,39,1,1,99,99,h,0.325095,1,1,38,0,38,0,1,,,,,,,,,,,,,,,,,,,,,,,,,,,,,,,,,,,,,,,,,,,,,,,,,,,,,,,,,,,,,,,,,,,,,,,,,,,,,
,,,,,,,,,,,,,,,,,,,,1,1,2021-01-05_00h41.05.539,CL_C2S3,2020.1.3,Win32,60,,,,,,,,,,u,0,0.28301,2,0,"[99,99,99]",2,0,Hand,i,RT,0,0,40,1,1,99,99,u,0.28301,0,1,39,0,39,0,1,,,,,,,,,,,,,,,,,,,,,,,,,,,,,,,,,,,,,,,,,,,,,,,,,,,,,,,,,,,,,,,,,,,,,,,,,,,,,
,,,,,,,,,,,,,,,,,,,,1,1,2021-01-05_00h41.05.539,CL_C2S3,2020.1.3,Win32,60,,,,,,,,,,u,1,0.989295,1,0,"[99,99,99]",1,1,Hand,u,RT,0,0,41,1,1,99,99,u,0.989295,1,1,40,0,40,0,1,,,,,,,,,,,,,,,,,,,,,,,,,,,,,,,,,,,,,,,,,,,,,,,,,,,,,,,,,,,,,,,,,,,,,,,,,,,,,
,,,,,,,,,,,,,,,,,,,,1,1,2021-01-05_00h41.05.539,CL_C2S3,2020.1.3,Win32,60,,,,,,,,,,u,0,0.477825,2,0,"[99,99,99]",2,0,Hand,i,RT,0,0,42,1,1,99,99,u,0.477825,0,1,41,0,41,0,1,,,,,,,,,,,,,,,,,,,,,,,,,,,,,,,,,,,,,,,,,,,,,,,,,,,,,,,,,,,,,,,,,,,,,,,,,,,,,
,,,,,,,,,,,,,,,,,,,,1,1,2021-01-05_00h41.05.539,CL_C2S3,2020.1.3,Win32,60,,,,,,,,,,h,1,0.650825,0,0,"[99,99,99]",0,0,Hand,h,RT,0,0,43,1,1,99,99,h,0.650825,1,1,42,0,42,0,1,,,,,,,,,,,,,,,,,,,,,,,,,,,,,,,,,,,,,,,,,,,,,,,,,,,,,,,,,,,,,,,,,,,,,,,,,,,,,
,,,,,,,,,,,,,,,,,,,,1,1,2021-01-05_00h41.05.539,CL_C2S3,2020.1.3,Win32,60,,,,,,,,,,u,1,0.40829,1,0,"[99,99,99]",1,1,Hand,u,RT,0,0,44,1,1,99,99,u,0.40829,1,1,43,0,43,0,1,,,,,,,,,,,,,,,,,,,,,,,,,,,,,,,,,,,,,,,,,,,,,,,,,,,,,,,,,,,,,,,,,,,,,,,,,,,,,
,,,,,,,,,,,,,,,,,,,,1,1,2021-01-05_00h41.05.539,CL_C2S3,2020.1.3,Win32,60,,,,,,,,,,i,1,0.348675,2,0,"[99,99,99]",2,0,Hand,i,RT,0,0,45,1,1,99,99,i,0.348675,1,1,44,0,44,0,1,,,,,,,,,,,,,,,,,,,,,,,,,,,,,,,,,,,,,,,,,,,,,,,,,,,,,,,,,,,,,,,,,,,,,,,,,,,,,
,,,,,,,,,,,,,,,,,,,,1,1,2021-01-05_00h41.05.539,CL_C2S3,2020.1.3,Win32,60,,,,,,,,,,i,1,1.583855,2,0,"[99,99,99]",2,0,Hand,i,RT,0,0,46,1,1,99,99,i,1.583855,1,1,45,0,45,0,1,,,,,,,,,,,,,,,,,,,,,,,,,,,,,,,,,,,,,,,,,,,,,,,,,,,,,,,,,,,,,,,,,,,,,,,,,,,,,
,,,,,,,,,,,,,,,,,,,,1,1,2021-01-05_00h41.05.539,CL_C2S3,2020.1.3,Win32,60,,,,,,,,,,h,1,0.377485,0,0,"[99,99,99]",0,0,Hand,h,RT,0,0,47,1,1,99,99,h,0.377485,1,1,46,0,46,0,1,,,,,,,,,,,,,,,,,,,,,,,,,,,,,,,,,,,,,,,,,,,,,,,,,,,,,,,,,,,,,,,,,,,,,,,,,,,,,
,,,,,,,,,,,,,,,,,,,,1,1,2021-01-05_00h41.05.539,CL_C2S3,2020.1.3,Win32,60,,,,,,,,,,u,1,1.04326,1,0,"[99,99,99]",1,1,Hand,u,RT,0,0,48,1,1,99,99,u,1.04326,1,1,47,0,47,0,1,,,,,,,,,,,,,,,,,,,,,,,,,,,,,,,,,,,,,,,,,,,,,,,,,,,,,,,,,,,,,,,,,,,,,,,,,,,,,
,,,,,,,,,,,,,,,,,,,,1,1,2021-01-05_00h41.05.539,CL_C2S3,2020.1.3,Win32,60,,,,,,,,,,h,1,0.68397,0,0,"[99,99,99]",0,0,Hand,h,RT,0,0,49,1,1,99,99,h,0.68397,1,1,48,0,48,0,1,,,,,,,,,,,,,,,,,,,,,,,,,,,,,,,,,,,,,,,,,,,,,,,,,,,,,,,,,,,,,,,,,,,,,,,,,,,,,
,,,,,,,,,,,,,,,,,,,,1,1,2021-01-05_00h41.05.539,CL_C2S3,2020.1.3,Win32,60,,,,,,,,,,u,1,0.398015,1,0,"[99,99,99]",1,1,Hand,u,RT,0,0,50,1,1,99,99,u,0.398015,1,1,49,0,49,0,1,,,,,,,,,,,,,,,,,,,,,,,,,,,,,,,,,,,,,,,,,,,,,,,,,,,,,,,,,,,,,,,,,,,,,,,,,,,,,
,,,,,,,,,,,,,,,,,,,,1,1,2021-01-05_00h41.05.539,CL_C2S3,2020.1.3,Win32,60,,,,,,,,,,i,1,0.339435,2,0,"[99,99,99]",2,0,Hand,i,RT,0,0,51,1,1,99,99,i,0.339435,1,1,50,0,50,0,1,,,,,,,,,,,,,,,,,,,,,,,,,,,,,,,,,,,,,,,,,,,,,,,,,,,,,,,,,,,,,,,,,,,,,,,,,,,,,
,,,,,,,,,,,,,,,,,,,,1,1,2021-01-05_00h41.05.539,CL_C2S3,2020.1.3,Win32,60,,,,,,,,,,i,1,0.478575,2,0,"[99,99,99]",2,0,Hand,i,RT,0,0,52,1,1,99,99,i,0.478575,1,1,51,0,51,0,1,,,,,,,,,,,,,,,,,,,,,,,,,,,,,,,,,,,,,,,,,,,,,,,,,,,,,,,,,,,,,,,,,,,,,,,,,,,,,
,,,,,,,,,,,,,,,,,,,,1,1,2021-01-05_00h41.05.539,CL_C2S3,2020.1.3,Win32,60,,,,,,,,,,u,1,0.516925,1,0,"[99,99,99]",1,1,Hand,u,RT,0,0,53,1,1,99,99,u,0.516925,1,1,52,0,52,0,1,,,,,,,,,,,,,,,,,,,,,,,,,,,,,,,,,,,,,,,,,,,,,,,,,,,,,,,,,,,,,,,,,,,,,,,,,,,,,
,,,,,,,,,,,,,,,,,,,,1,1,2021-01-05_00h41.05.539,CL_C2S3,2020.1.3,Win32,60,,,,,,,,,,u,1,0.33676,1,0,"[99,99,99]",1,1,Hand,u,RT,0,0,54,1,1,99,99,u,0.33676,1,1,53,0,53,0,1,,,,,,,,,,,,,,,,,,,,,,,,,,,,,,,,,,,,,,,,,,,,,,,,,,,,,,,,,,,,,,,,,,,,,,,,,,,,,
,,,,,,,,,,,,,,,,,,,,1,1,2021-01-05_00h41.05.539,CL_C2S3,2020.1.3,Win32,60,,,,,,,,,,u,0,0.42633,0,0,"[99,99,99]",0,0,Hand,h,RT,0,0,55,1,1,99,99,u,0.42633,0,1,54,0,54,0,1,,,,,,,,,,,,,,,,,,,,,,,,,,,,,,,,,,,,,,,,,,,,,,,,,,,,,,,,,,,,,,,,,,,,,,,,,,,,,
,,,,,,,,,,,,,,,,,,,,1,1,2021-01-05_00h41.05.539,CL_C2S3,2020.1.3,Win32,60,,,,,,,,,,h,1,0.42562,0,0,"[99,99,99]",0,0,Hand,h,RT,0,0,56,1,1,99,99,h,0.42562,1,1,55,0,55,0,1,,,,,,,,,,,,,,,,,,,,,,,,,,,,,,,,,,,,,,,,,,,,,,,,,,,,,,,,,,,,,,,,,,,,,,,,,,,,,
,,,,,,,,,,,,,,,,,,,,1,1,2021-01-05_00h41.05.539,CL_C2S3,2020.1.3,Win32,60,,,,,,,,,,i,1,0.376765,2,0,"[99,99,99]",2,0,Hand,i,RT,0,0,57,1,1,99,99,i,0.376765,1,1,56,0,56,0,1,,,,,,,,,,,,,,,,,,,,,,,,,,,,,,,,,,,,,,,,,,,,,,,,,,,,,,,,,,,,,,,,,,,,,,,,,,,,,
,,,,,,,,,,,,,,,,,,,,1,1,2021-01-05_00h41.05.539,CL_C2S3,2020.1.3,Win32,60,,,,,,,,,,i,1,0.36983,2,0,"[99,99,99]",2,0,Hand,i,RT,0,0,58,1,1,99,99,i,0.36983,1,1,57,0,57,0,1,,,,,,,,,,,,,,,,,,,,,,,,,,,,,,,,,,,,,,,,,,,,,,,,,,,,,,,,,,,,,,,,,,,,,,,,,,,,,
,,,,,,,,,,,,,,,,,,,,1,1,2021-01-05_00h41.05.539,CL_C2S3,2020.1.3,Win32,60,,,,,,,,,,u,1,0.41139,1,0,"[99,99,99]",1,1,Hand,u,RT,0,0,59,1,1,99,99,u,0.41139,1,1,58,0,58,0,1,,,,,,,,,,,,,,,,,,,,,,,,,,,,,,,,,,,,,,,,,,,,,,,,,,,,,,,,,,,,,,,,,,,,,,,,,,,,,
,,,,,,,,,,,,,,,,,,,,1,1,2021-01-05_00h41.05.539,CL_C2S3,2020.1.3,Win32,60,,,,,,,,,,h,1,0.30399,0,0,"[99,99,99]",0,0,Hand,h,RT,0,0,60,1,1,99,99,h,0.30399,1,1,59,0,59,0,1,,,,,,,,,,,,,,,,,,,,,,,,,,,,,,,,,,,,,,,,,,,,,,,,,,,,,,,,,,,,,,,,,,,,,,,,,,,,,
,,,,,,,,,,,,,,,,,,,,1,1,2021-01-05_00h41.05.539,CL_C2S3,2020.1.3,Win32,60,,,,,,,,,,,,,,,,,,,,,,,,,,,,,,,,,,,,,h,34.058665,h,9.570395,i,1,1.40983,0,0,0,0,1,,,,,,,,,,,,,,,,,,,,,,,,,,,,,,,,,,,,,,,,,,,,,,,,,,,,,,,,,,,,,,,,,
,,,,,,,,,,,,,,,,,,,,1,1,2021-01-05_00h41.05.539,CL_C2S3,2020.1.3,Win32,60,,,,,,,,,,,,,2,0,"[99,99,99]",2,0,Hand,i,TR,0,0,1,1,1,1.0248256,99,i,1.40983,1,1,,,,,,,,,,,,,,,,,,0,0,0,0,1,,,,,,,,,,,,,,,,,,,,,,,,,,,,,,,,,,,,,,,,,,,,,,,,,,,,,,,,,,,,
,,,,,,,,,,,,,,,,,,,,1,1,2021-01-05_00h41.05.539,CL_C2S3,2020.1.3,Win32,60,,,,,,,,,,,,,,,,,,,,,,,,,,,,,,,,,,,,,,,,,h,1,1.28427,0,0,0,0,1,,,,,,,,,,,,,,,,,,,,,,,,,,,,,,,,,,,,,,,,,,,,,,,,,,,,,,,,,,,,,,,,,
,,,,,,,,,,,,,,,,,,,,1,1,2021-01-05_00h41.05.539,CL_C2S3,2020.1.3,Win32,60,,,,,,,,,,,,,0,0,"[99,99,99]",0,0,Hand,h,TR,0,0,2,1,1,1.063762071,99,h,1.28427,1,1,,,,,,,,,,,,,,,,,,1,0,1,0,1,,,,,,,,,,,,,,,,,,,,,,,,,,,,,,,,,,,,,,,,,,,,,,,,,,,,,,,,,,,,
,,,,,,,,,,,,,,,,,,,,1,1,2021-01-05_00h41.05.539,CL_C2S3,2020.1.3,Win32,60,,,,,,,,,,,,,,,,,,,,,,,,,,,,,,,,,,,,,,,,,u,0,1.26783,0,0,0,0,1,,,,,,,,,,,,,,,,,,,,,,,,,,,,,,,,,,,,,,,,,,,,,,,,,,,,,,,,,,,,,,,,,
,,,,,,,,,,,,,,,,,,,,1,1,2021-01-05_00h41.05.539,CL_C2S3,2020.1.3,Win32,60,,,,,,,,,,,,,0,0,"[99,99,99]",0,0,Hand,h,TR,0,0,3,1,1,-0.040953591,99,u,1.26783,0,1,,,,,,,,,,,,,,,,,,2,0,2,0,1,,,,,,,,,,,,,,,,,,,,,,,,,,,,,,,,,,,,,,,,,,,,,,,,,,,,,,,,,,,,
,,,,,,,,,,,,,,,,,,,,1,1,2021-01-05_00h41.05.539,CL_C2S3,2020.1.3,Win32,60,,,,,,,,,,,,,,,,,,,,,,,,,,,,,,,,,,,,,,,,,i,1,1.31975,0,0,0,0,1,,,,,,,,,,,,,,,,,,,,,,,,,,,,,,,,,,,,,,,,,,,,,,,,,,,,,,,,,,,,,,,,,
,,,,,,,,,,,,,,,,,,,,1,1,2021-01-05_00h41.05.539,CL_C2S3,2020.1.3,Win32,60,,,,,,,,,,,,,2,0,"[99,99,99]",2,0,Hand,i,TR,0,0,4,1,1,0.949725997,99,i,1.31975,1,1,,,,,,,,,,,,,,,,,,3,0,3,0,1,,,,,,,,,,,,,,,,,,,,,,,,,,,,,,,,,,,,,,,,,,,,,,,,,,,,,,,,,,,,
,,,,,,,,,,,,,,,,,,,,1,1,2021-01-05_00h41.05.539,CL_C2S3,2020.1.3,Win32,60,,,,,,,,,,,,,,,,,,,,,,,,,,,,,,,,,,,,,,,,,u,1,1.30112,0,0,0,0,1,,,,,,,,,,,,,,,,,,,,,,,,,,,,,,,,,,,,,,,,,,,,,,,,,,,,,,,,,,,,,,,,,
,,,,,,,,,,,,,,,,,,,,1,1,2021-01-05_00h41.05.539,CL_C2S3,2020.1.3,Win32,60,,,,,,,,,,,,,1,0,"[99,99,99]",1,1,Hand,u,TR,0,0,5,1,1,0.382296559,99,u,1.30112,1,1,,,,,,,,,,,,,,,,,,4,0,4,0,1,,,,,,,,,,,,,,,,,,,,,,,,,,,,,,,,,,,,,,,,,,,,,,,,,,,,,,,,,,,,
,,,,,,,,,,,,,,,,,,,,1,1,2021-01-05_00h41.05.539,CL_C2S3,2020.1.3,Win32,60,,,,,,,,,,,,,,,,,,,,,,,,,,,,,,,,,,,,,,,,,u,1,1.31566,0,0,0,0,1,,,,,,,,,,,,,,,,,,,,,,,,,,,,,,,,,,,,,,,,,,,,,,,,,,,,,,,,,,,,,,,,,
,,,,,,,,,,,,,,,,,,,,1,1,2021-01-05_00h41.05.539,CL_C2S3,2020.1.3,Win32,60,,,,,,,,,,,,,1,0,"[99,99,99]",1,1,Hand,u,TR,0,0,6,1,1,0.660838202,99,u,1.31566,1,1,,,,,,,,,,,,,,,,,,5,0,5,0,1,,,,,,,,,,,,,,,,,,,,,,,,,,,,,,,,,,,,,,,,,,,,,,,,,,,,,,,,,,,,
,,,,,,,,,,,,,,,,,,,,1,1,2021-01-05_00h41.05.539,CL_C2S3,2020.1.3,Win32,60,,,,,,,,,,,,,,,,,,,,,,,,,,,,,,,,,,,,,,,,,h,0,1.36734,0,0,0,0,1,,,,,,,,,,,,,,,,,,,,,,,,,,,,,,,,,,,,,,,,,,,,,,,,,,,,,,,,,,,,,,,,,
,,,,,,,,,,,,,,,,,,,,1,1,2021-01-05_00h41.05.539,CL_C2S3,2020.1.3,Win32,60,,,,,,,,,,,,,2,0,"[99,99,99]",2,0,Hand,i,TR,0,0,7,1,1,-0.071815381,99,h,1.36734,0,1,,,,,,,,,,,,,,,,,,6,0,6,0,1,,,,,,,,,,,,,,,,,,,,,,,,,,,,,,,,,,,,,,,,,,,,,,,,,,,,,,,,,,,,
,,,,,,,,,,,,,,,,,,,,1,1,2021-01-05_00h41.05.539,CL_C2S3,2020.1.3,Win32,60,,,,,,,,,,,,,,,,,,,,,,,,,,,,,,,,,,,,,,,,,u,1,1.35066,0,0,0,0,1,,,,,,,,,,,,,,,,,,,,,,,,,,,,,,,,,,,,,,,,,,,,,,,,,,,,,,,,,,,,,,,,,
,,,,,,,,,,,,,,,,,,,,1,1,2021-01-05_00h41.05.539,CL_C2S3,2020.1.3,Win32,60,,,,,,,,,,,,,1,0,"[99,99,99]",1,1,Hand,u,TR,0,0,8,1,1,0.878578295,99,u,1.35066,1,1,,,,,,,,,,,,,,,,,,7,0,7,0,1,,,,,,,,,,,,,,,,,,,,,,,,,,,,,,,,,,,,,,,,,,,,,,,,,,,,,,,,,,,,
,,,,,,,,,,,,,,,,,,,,1,1,2021-01-05_00h41.05.539,CL_C2S3,2020.1.3,Win32,60,,,,,,,,,,,,,,,,,,,,,,,,,,,,,,,,,,,,,,,,,h,1,1.2489,0,0,0,0,1,,,,,,,,,,,,,,,,,,,,,,,,,,,,,,,,,,,,,,,,,,,,,,,,,,,,,,,,,,,,,,,,,
,,,,,,,,,,,,,,,,,,,,1,1,2021-01-05_00h41.05.539,CL_C2S3,2020.1.3,Win32,60,,,,,,,,,,,,,0,0,"[99,99,99]",0,0,Hand,h,TR,0,0,9,1,1,0.672316764,99,h,1.2489,1,1,,,,,,,,,,,,,,,,,,8,0,8,0,1,,,,,,,,,,,,,,,,,,,,,,,,,,,,,,,,,,,,,,,,,,,,,,,,,,,,,,,,,,,,
,,,,,,,,,,,,,,,,,,,,1,1,2021-01-05_00h41.05.539,CL_C2S3,2020.1.3,Win32,60,,,,,,,,,,,,,,,,,,,,,,,,,,,,,,,,,,,,,,,,,u,1,1.201055,0,0,0,0,1,,,,,,,,,,,,,,,,,,,,,,,,,,,,,,,,,,,,,,,,,,,,,,,,,,,,,,,,,,,,,,,,,
,,,,,,,,,,,,,,,,,,,,1,1,2021-01-05_00h41.05.539,CL_C2S3,2020.1.3,Win32,60,,,,,,,,,,,,,1,0,"[99,99,99]",1,1,Hand,u,TR,0,0,10,1,1,0.322888032,99,u,1.201055,1,1,,,,,,,,,,,,,,,,,,9,0,9,0,1,,,,,,,,,,,,,,,,,,,,,,,,,,,,,,,,,,,,,,,,,,,,,,,,,,,,,,,,,,,,
,,,,,,,,,,,,,,,,,,,,1,1,2021-01-05_00h41.05.539,CL_C2S3,2020.1.3,Win32,60,,,,,,,,,,,,,,,,,,,,,,,,,,,,,,,,,,,,,,,,,i,0,1.21879,0,0,0,0,1,,,,,,,,,,,,,,,,,,,,,,,,,,,,,,,,,,,,,,,,,,,,,,,,,,,,,,,,,,,,,,,,,
,,,,,,,,,,,,,,,,,,,,1,1,2021-01-05_00h41.05.539,CL_C2S3,2020.1.3,Win32,60,,,,,,,,,,,,,0,0,"[99,99,99]",0,0,Hand,h,TR,0,0,11,1,1,0.145894942,99,i,1.21879,0,1,,,,,,,,,,,,,,,,,,10,0,10,0,1,,,,,,,,,,,,,,,,,,,,,,,,,,,,,,,,,,,,,,,,,,,,,,,,,,,,,,,,,,,,
,,,,,,,,,,,,,,,,,,,,1,1,2021-01-05_00h41.05.539,CL_C2S3,2020.1.3,Win32,60,,,,,,,,,,,,,,,,,,,,,,,,,,,,,,,,,,,,,,,,,i,1,1.284265,0,0,0,0,1,,,,,,,,,,,,,,,,,,,,,,,,,,,,,,,,,,,,,,,,,,,,,,,,,,,,,,,,,,,,,,,,,
,,,,,,,,,,,,,,,,,,,,1,1,2021-01-05_00h41.05.539,CL_C2S3,2020.1.3,Win32,60,,,,,,,,,,,,,2,0,"[99,99,99]",2,0,Hand,i,TR,0,0,12,1,1,0.547925198,99,i,1.284265,1,1,,,,,,,,,,,,,,,,,,11,0,11,0,1,,,,,,,,,,,,,,,,,,,,,,,,,,,,,,,,,,,,,,,,,,,,,,,,,,,,,,,,,,,,
,,,,,,,,,,,,,,,,,,,,1,1,2021-01-05_00h41.05.539,CL_C2S3,2020.1.3,Win32,60,,,,,,,,,,,,,,,,,,,,,,,,,,,,,,,,,,,,,,,,,h,1,1.251125,0,0,0,0,1,,,,,,,,,,,,,,,,,,,,,,,,,,,,,,,,,,,,,,,,,,,,,,,,,,,,,,,,,,,,,,,,,
,,,,,,,,,,,,,,,,,,,,1,1,2021-01-05_00h41.05.539,CL_C2S3,2020.1.3,Win32,60,,,,,,,,,,,,,0,0,"[99,99,99]",0,0,Hand,h,TR,0,0,13,1,1,0.363403483,99,h,1.251125,1,1,,,,,,,,,,,,,,,,,,12,0,12,0,1,,,,,,,,,,,,,,,,,,,,,,,,,,,,,,,,,,,,,,,,,,,,,,,,,,,,,,,,,,,,
,,,,,,,,,,,,,,,,,,,,1,1,2021-01-05_00h41.05.539,CL_C2S3,2020.1.3,Win32,60,,,,,,,,,,,,,,,,,,,,,,,,,,,,,,,,,,,,,,,,,u,1,1.285815,0,0,0,0,1,,,,,,,,,,,,,,,,,,,,,,,,,,,,,,,,,,,,,,,,,,,,,,,,,,,,,,,,,,,,,,,,,
,,,,,,,,,,,,,,,,,,,,1,1,2021-01-05_00h41.05.539,CL_C2S3,2020.1.3,Win32,60,,,,,,,,,,,,,1,0,"[99,99,99]",1,1,Hand,u,TR,0,0,14,1,1,0.954472541,99,u,1.285815,1,1,,,,,,,,,,,,,,,,,,13,0,13,0,1,,,,,,,,,,,,,,,,,,,,,,,,,,,,,,,,,,,,,,,,,,,,,,,,,,,,,,,,,,,,
,,,,,,,,,,,,,,,,,,,,1,1,2021-01-05_00h41.05.539,CL_C2S3,2020.1.3,Win32,60,,,,,,,,,,,,,,,,,,,,,,,,,,,,,,,,,,,,,,,,,i,1,1.30039,0,0,0,0,1,,,,,,,,,,,,,,,,,,,,,,,,,,,,,,,,,,,,,,,,,,,,,,,,,,,,,,,,,,,,,,,,,
,,,,,,,,,,,,,,,,,,,,1,1,2021-01-05_00h41.05.539,CL_C2S3,2020.1.3,Win32,60,,,,,,,,,,,,,2,0,"[99,99,99]",2,0,Hand,i,TR,0,0,15,1,1,0.550041805,99,i,1.30039,1,1,,,,,,,,,,,,,,,,,,14,0,14,0,1,,,,,,,,,,,,,,,,,,,,,,,,,,,,,,,,,,,,,,,,,,,,,,,,,,,,,,,,,,,,
,,,,,,,,,,,,,,,,,,,,1,1,2021-01-05_00h41.05.539,CL_C2S3,2020.1.3,Win32,60,,,,,,,,,,,,,,,,,,,,,,,,,,,,,,,,,,,,,,,,,i,1,1.35138,0,0,0,0,1,,,,,,,,,,,,,,,,,,,,,,,,,,,,,,,,,,,,,,,,,,,,,,,,,,,,,,,,,,,,,,,,,
,,,,,,,,,,,,,,,,,,,,1,1,2021-01-05_00h41.05.539,CL_C2S3,2020.1.3,Win32,60,,,,,,,,,,,,,2,0,"[99,99,99]",2,0,Hand,i,TR,0,0,16,1,1,0.911453928,99,i,1.35138,1,1,,,,,,,,,,,,,,,,,,15,0,15,0,1,,,,,,,,,,,,,,,,,,,,,,,,,,,,,,,,,,,,,,,,,,,,,,,,,,,,,,,,,,,,
,,,,,,,,,,,,,,,,,,,,1,1,2021-01-05_00h41.05.539,CL_C2S3,2020.1.3,Win32,60,,,,,,,,,,,,,,,,,,,,,,,,,,,,,,,,,,,,,,,,,h,1,1.268575,0,0,0,0,1,,,,,,,,,,,,,,,,,,,,,,,,,,,,,,,,,,,,,,,,,,,,,,,,,,,,,,,,,,,,,,,,,
,,,,,,,,,,,,,,,,,,,,1,1,2021-01-05_00h41.05.539,CL_C2S3,2020.1.3,Win32,60,,,,,,,,,,,,,0,0,"[99,99,99]",0,0,Hand,h,TR,0,0,17,1,1,0.726518774,99,h,1.268575,1,1,,,,,,,,,,,,,,,,,,16,0,16,0,1,,,,,,,,,,,,,,,,,,,,,,,,,,,,,,,,,,,,,,,,,,,,,,,,,,,,,,,,,,,,
,,,,,,,,,,,,,,,,,,,,1,1,2021-01-05_00h41.05.539,CL_C2S3,2020.1.3,Win32,60,,,,,,,,,,,,,,,,,,,,,,,,,,,,,,,,,,,,,,,,,u,0,1.38354,0,0,0,0,1,,,,,,,,,,,,,,,,,,,,,,,,,,,,,,,,,,,,,,,,,,,,,,,,,,,,,,,,,,,,,,,,,
,,,,,,,,,,,,,,,,,,,,1,1,2021-01-05_00h41.05.539,CL_C2S3,2020.1.3,Win32,60,,,,,,,,,,,,,0,0,"[99,99,99]",0,0,Hand,h,TR,0,0,18,1,1,0.262813019,99,u,1.38354,0,1,,,,,,,,,,,,,,,,,,17,0,17,0,1,,,,,,,,,,,,,,,,,,,,,,,,,,,,,,,,,,,,,,,,,,,,,,,,,,,,,,,,,,,,
,,,,,,,,,,,,,,,,,,,,1,1,2021-01-05_00h41.05.539,CL_C2S3,2020.1.3,Win32,60,,,,,,,,,,,,,,,,,,,,,,,,,,,,,,,,,,,,,,,,,u,1,1.335345,0,0,0,0,1,,,,,,,,,,,,,,,,,,,,,,,,,,,,,,,,,,,,,,,,,,,,,,,,,,,,,,,,,,,,,,,,,
,,,,,,,,,,,,,,,,,,,,1,1,2021-01-05_00h41.05.539,CL_C2S3,2020.1.3,Win32,60,,,,,,,,,,,,,1,0,"[99,99,99]",1,1,Hand,u,TR,0,0,19,1,1,0.600291978,99,u,1.335345,1,1,,,,,,,,,,,,,,,,,,18,0,18,0,1,,,,,,,,,,,,,,,,,,,,,,,,,,,,,,,,,,,,,,,,,,,,,,,,,,,,,,,,,,,,
,,,,,,,,,,,,,,,,,,,,1,1,2021-01-05_00h41.05.539,CL_C2S3,2020.1.3,Win32,60,,,,,,,,,,,,,,,,,,,,,,,,,,,,,,,,,,,,,,,,,i,1,1.184325,0,0,0,0,1,,,,,,,,,,,,,,,,,,,,,,,,,,,,,,,,,,,,,,,,,,,,,,,,,,,,,,,,,,,,,,,,,
,,,,,,,,,,,,,,,,,,,,1,1,2021-01-05_00h41.05.539,CL_C2S3,2020.1.3,Win32,60,,,,,,,,,,,,,2,0,"[99,99,99]",2,0,Hand,i,TR,0,0,20,1,1,1.001215903,99,i,1.184325,1,1,,,,,,,,,,,,,,,,,,19,0,19,0,1,,,,,,,,,,,,,,,,,,,,,,,,,,,,,,,,,,,,,,,,,,,,,,,,,,,,,,,,,,,,
,,,,,,,,,,,,,,,,,,,,1,1,2021-01-05_00h41.05.539,CL_C2S3,2020.1.3,Win32,60,,,,,,,,,,,,,,,,,,,,,,,,,,,,,,,,,,,,,,,,,h,0,1.23383,0,0,0,0,1,,,,,,,,,,,,,,,,,,,,,,,,,,,,,,,,,,,,,,,,,,,,,,,,,,,,,,,,,,,,,,,,,
,,,,,,,,,,,,,,,,,,,,1,1,2021-01-05_00h41.05.539,CL_C2S3,2020.1.3,Win32,60,,,,,,,,,,,,,1,0,"[99,99,99]",1,1,Hand,u,TR,0,0,21,1,1,0.146986652,99,h,1.23383,0,1,,,,,,,,,,,,,,,,,,20,0,20,0,1,,,,,,,,,,,,,,,,,,,,,,,,,,,,,,,,,,,,,,,,,,,,,,,,,,,,,,,,,,,,
,,,,,,,,,,,,,,,,,,,,1,1,2021-01-05_00h41.05.539,CL_C2S3,2020.1.3,Win32,60,,,,,,,,,,,,,,,,,,,,,,,,,,,,,,,,,,,,,,,,,i,1,1.237075,0,0,0,0,1,,,,,,,,,,,,,,,,,,,,,,,,,,,,,,,,,,,,,,,,,,,,,,,,,,,,,,,,,,,,,,,,,
,,,,,,,,,,,,,,,,,,,,1,1,2021-01-05_00h41.05.539,CL_C2S3,2020.1.3,Win32,60,,,,,,,,,,,,,2,0,"[99,99,99]",2,0,Hand,i,TR,0,0,22,1,1,0.918711007,99,i,1.237075,1,1,,,,,,,,,,,,,,,,,,21,0,21,0,1,,,,,,,,,,,,,,,,,,,,,,,,,,,,,,,,,,,,,,,,,,,,,,,,,,,,,,,,,,,,
,,,,,,,,,,,,,,,,,,,,1,1,2021-01-05_00h41.05.539,CL_C2S3,2020.1.3,Win32,60,,,,,,,,,,,,,,,,,,,,,,,,,,,,,,,,,,,,,,,,,u,1,1.32104,0,0,0,0,1,,,,,,,,,,,,,,,,,,,,,,,,,,,,,,,,,,,,,,,,,,,,,,,,,,,,,,,,,,,,,,,,,
,,,,,,,,,,,,,,,,,,,,1,1,2021-01-05_00h41.05.539,CL_C2S3,2020.1.3,Win32,60,,,,,,,,,,,,,1,0,"[99,99,99]",1,1,Hand,u,TR,0,0,23,1,1,0.272548957,99,u,1.32104,1,1,,,,,,,,,,,,,,,,,,22,0,22,0,1,,,,,,,,,,,,,,,,,,,,,,,,,,,,,,,,,,,,,,,,,,,,,,,,,,,,,,,,,,,,
,,,,,,,,,,,,,,,,,,,,1,1,2021-01-05_00h41.05.539,CL_C2S3,2020.1.3,Win32,60,,,,,,,,,,,,,,,,,,,,,,,,,,,,,,,,,,,,,,,,,h,1,1.284105,0,0,0,0,1,,,,,,,,,,,,,,,,,,,,,,,,,,,,,,,,,,,,,,,,,,,,,,,,,,,,,,,,,,,,,,,,,
,,,,,,,,,,,,,,,,,,,,1,1,2021-01-05_00h41.05.539,CL_C2S3,2020.1.3,Win32,60,,,,,,,,,,,,,0,0,"[99,99,99]",0,0,Hand,h,TR,0,0,24,1,1,0.67015204,99,h,1.284105,1,1,,,,,,,,,,,,,,,,,,23,0,23,0,1,,,,,,,,,,,,,,,,,,,,,,,,,,,,,,,,,,,,,,,,,,,,,,,,,,,,,,,,,,,,
,,,,,,,,,,,,,,,,,,,,1,1,2021-01-05_00h41.05.539,CL_C2S3,2020.1.3,Win32,60,,,,,,,,,,,,,,,,,,,,,,,,,,,,,,,,,,,,,,,,,h,1,1.284105,0,0,0,0,1,,,,,,,,,,,,,,,,,,,,,,,,,,,,,,,,,,,,,,,,,,,,,,,,,,,,,,,,,,,,,,,,,
,,,,,,,,,,,,,,,,,,,,1,1,2021-01-05_00h41.05.539,CL_C2S3,2020.1.3,Win32,60,,,,,,,,,,,,,0,0,"[99,99,99]",0,0,Hand,h,TR,0,0,25,1,1,0.411449878,99,h,1.284105,1,1,,,,,,,,,,,,,,,,,,24,0,24,0,1,,,,,,,,,,,,,,,,,,,,,,,,,,,,,,,,,,,,,,,,,,,,,,,,,,,,,,,,,,,,
,,,,,,,,,,,,,,,,,,,,1,1,2021-01-05_00h41.05.539,CL_C2S3,2020.1.3,Win32,60,,,,,,,,,,,,,,,,,,,,,,,,,,,,,,,,,,,,,,,,,u,1,1.25201,0,0,0,0,1,,,,,,,,,,,,,,,,,,,,,,,,,,,,,,,,,,,,,,,,,,,,,,,,,,,,,,,,,,,,,,,,,
,,,,,,,,,,,,,,,,,,,,1,1,2021-01-05_00h41.05.539,CL_C2S3,2020.1.3,Win32,60,,,,,,,,,,,,,1,0,"[99,99,99]",1,1,Hand,u,TR,0,0,26,1,1,0.001888929,99,u,1.25201,1,1,,,,,,,,,,,,,,,,,,25,0,25,0,1,,,,,,,,,,,,,,,,,,,,,,,,,,,,,,,,,,,,,,,,,,,,,,,,,,,,,,,,,,,,
,,,,,,,,,,,,,,,,,,,,1,1,2021-01-05_00h41.05.539,CL_C2S3,2020.1.3,Win32,60,,,,,,,,,,,,,,,,,,,,,,,,,,,,,,,,,,,,,,,,,i,1,1.28399,0,0,0,0,1,,,,,,,,,,,,,,,,,,,,,,,,,,,,,,,,,,,,,,,,,,,,,,,,,,,,,,,,,,,,,,,,,
,,,,,,,,,,,,,,,,,,,,1,1,2021-01-05_00h41.05.539,CL_C2S3,2020.1.3,Win32,60,,,,,,,,,,,,,2,0,"[99,99,99]",2,0,Hand,i,TR,0,0,27,1,1,0.827101993,99,i,1.28399,1,1,,,,,,,,,,,,,,,,,,26,0,26,0,1,,,,,,,,,,,,,,,,,,,,,,,,,,,,,,,,,,,,,,,,,,,,,,,,,,,,,,,,,,,,
,,,,,,,,,,,,,,,,,,,,1,1,2021-01-05_00h41.05.539,CL_C2S3,2020.1.3,Win32,60,,,,,,,,,,,,,,,,,,,,,,,,,,,,,,,,,,,,,,,,,u,1,1.318135,0,0,0,0,1,,,,,,,,,,,,,,,,,,,,,,,,,,,,,,,,,,,,,,,,,,,,,,,,,,,,,,,,,,,,,,,,,
,,,,,,,,,,,,,,,,,,,,1,1,2021-01-05_00h41.05.539,CL_C2S3,2020.1.3,Win32,60,,,,,,,,,,,,,1,0,"[99,99,99]",1,1,Hand,u,TR,0,0,28,1,1,0.126027722,99,u,1.318135,1,1,,,,,,,,,,,,,,,,,,27,0,27,0,1,,,,,,,,,,,,,,,,,,,,,,,,,,,,,,,,,,,,,,,,,,,,,,,,,,,,,,,,,,,,
,,,,,,,,,,,,,,,,,,,,1,1,2021-01-05_00h41.05.539,CL_C2S3,2020.1.3,Win32,60,,,,,,,,,,,,,,,,,,,,,,,,,,,,,,,,,,,,,,,,,i,1,1.201325,0,0,0,0,1,,,,,,,,,,,,,,,,,,,,,,,,,,,,,,,,,,,,,,,,,,,,,,,,,,,,,,,,,,,,,,,,,
,,,,,,,,,,,,,,,,,,,,1,1,2021-01-05_00h41.05.539,CL_C2S3,2020.1.3,Win32,60,,,,,,,,,,,,,2,0,"[99,99,99]",2,0,Hand,i,TR,0,0,29,1,1,0.73089062,99,i,1.201325,1,1,,,,,,,,,,,,,,,,,,28,0,28,0,1,,,,,,,,,,,,,,,,,,,,,,,,,,,,,,,,,,,,,,,,,,,,,,,,,,,,,,,,,,,,
,,,,,,,,,,,,,,,,,,,,1,1,2021-01-05_00h41.05.539,CL_C2S3,2020.1.3,Win32,60,,,,,,,,,,,,,,,,,,,,,,,,,,,,,,,,,,,,,,,,,u,0,1.334135,0,0,0,0,1,,,,,,,,,,,,,,,,,,,,,,,,,,,,,,,,,,,,,,,,,,,,,,,,,,,,,,,,,,,,,,,,,
,,,,,,,,,,,,,,,,,,,,1,1,2021-01-05_00h41.05.539,CL_C2S3,2020.1.3,Win32,60,,,,,,,,,,,,,0,0,"[99,99,99]",0,0,Hand,h,TR,0,0,30,1,1,0.292043448,99,u,1.334135,0,1,,,,,,,,,,,,,,,,,,29,0,29,0,1,,,,,,,,,,,,,,,,,,,,,,,,,,,,,,,,,,,,,,,,,,,,,,,,,,,,,,,,,,,,
,,,,,,,,,,,,,,,,,,,,1,1,2021-01-05_00h41.05.539,CL_C2S3,2020.1.3,Win32,60,,,,,,,,,,,,,,,,,,,,,,,,,,,,,,,,,,,,,,,,,h,1,1.317485,0,0,0,0,1,,,,,,,,,,,,,,,,,,,,,,,,,,,,,,,,,,,,,,,,,,,,,,,,,,,,,,,,,,,,,,,,,
,,,,,,,,,,,,,,,,,,,,1,1,2021-01-05_00h41.05.539,CL_C2S3,2020.1.3,Win32,60,,,,,,,,,,,,,0,0,"[99,99,99]",0,0,Hand,h,TR,0,0,31,1,1,0.917723352,99,h,1.317485,1,1,,,,,,,,,,,,,,,,,,30,0,30,0,1,,,,,,,,,,,,,,,,,,,,,,,,,,,,,,,,,,,,,,,,,,,,,,,,,,,,,,,,,,,,
,,,,,,,,,,,,,,,,,,,,1,1,2021-01-05_00h41.05.539,CL_C2S3,2020.1.3,Win32,60,,,,,,,,,,,,,,,,,,,,,,,,,,,,,,,,,,,,,,,,,h,0,1.33051,0,0,0,0,1,,,,,,,,,,,,,,,,,,,,,,,,,,,,,,,,,,,,,,,,,,,,,,,,,,,,,,,,,,,,,,,,,
,,,,,,,,,,,,,,,,,,,,1,1,2021-01-05_00h41.05.539,CL_C2S3,2020.1.3,Win32,60,,,,,,,,,,,,,2,0,"[99,99,99]",2,0,Hand,i,TR,0,0,32,1,1,0.341575816,99,h,1.33051,0,1,,,,,,,,,,,,,,,,,,31,0,31,0,1,,,,,,,,,,,,,,,,,,,,,,,,,,,,,,,,,,,,,,,,,,,,,,,,,,,,,,,,,,,,
,,,,,,,,,,,,,,,,,,,,1,1,2021-01-05_00h41.05.539,CL_C2S3,2020.1.3,Win32,60,,,,,,,,,,,,,,,,,,,,,,,,,,,,,,,,,,,,,,,,,h,0,1.3014,0,0,0,0,1,,,,,,,,,,,,,,,,,,,,,,,,,,,,,,,,,,,,,,,,,,,,,,,,,,,,,,,,,,,,,,,,,
,,,,,,,,,,,,,,,,,,,,1,1,2021-01-05_00h41.05.539,CL_C2S3,2020.1.3,Win32,60,,,,,,,,,,,,,2,0,"[99,99,99]",2,0,Hand,i,TR,0,0,33,1,1,0.240638556,99,h,1.3014,0,1,,,,,,,,,,,,,,,,,,32,0,32,0,1,,,,,,,,,,,,,,,,,,,,,,,,,,,,,,,,,,,,,,,,,,,,,,,,,,,,,,,,,,,,
,,,,,,,,,,,,,,,,,,,,1,1,2021-01-05_00h41.05.539,CL_C2S3,2020.1.3,Win32,60,,,,,,,,,,,,,,,,,,,,,,,,,,,,,,,,,,,,,,,,,h,1,1.301295,0,0,0,0,1,,,,,,,,,,,,,,,,,,,,,,,,,,,,,,,,,,,,,,,,,,,,,,,,,,,,,,,,,,,,,,,,,
,,,,,,,,,,,,,,,,,,,,1,1,2021-01-05_00h41.05.539,CL_C2S3,2020.1.3,Win32,60,,,,,,,,,,,,,0,0,"[99,99,99]",0,0,Hand,h,TR,0,0,34,1,1,0.779942386,99,h,1.301295,1,1,,,,,,,,,,,,,,,,,,33,0,33,0,1,,,,,,,,,,,,,,,,,,,,,,,,,,,,,,,,,,,,,,,,,,,,,,,,,,,,,,,,,,,,
,,,,,,,,,,,,,,,,,,,,1,1,2021-01-05_00h41.05.539,CL_C2S3,2020.1.3,Win32,60,,,,,,,,,,,,,,,,,,,,,,,,,,,,,,,,,,,,,,,,,u,1,1.31487,0,0,0,0,1,,,,,,,,,,,,,,,,,,,,,,,,,,,,,,,,,,,,,,,,,,,,,,,,,,,,,,,,,,,,,,,,,
,,,,,,,,,,,,,,,,,,,,1,1,2021-01-05_00h41.05.539,CL_C2S3,2020.1.3,Win32,60,,,,,,,,,,,,,1,0,"[99,99,99]",1,1,Hand,u,TR,0,0,35,1,1,0.201374118,99,u,1.31487,1,1,,,,,,,,,,,,,,,,,,34,0,34,0,1,,,,,,,,,,,,,,,,,,,,,,,,,,,,,,,,,,,,,,,,,,,,,,,,,,,,,,,,,,,,
,,,,,,,,,,,,,,,,,,,,1,1,2021-01-05_00h41.05.539,CL_C2S3,2020.1.3,Win32,60,,,,,,,,,,,,,,,,,,,,,,,,,,,,,,,,,,,,,,,,,i,0,1.30141,0,0,0,0,1,,,,,,,,,,,,,,,,,,,,,,,,,,,,,,,,,,,,,,,,,,,,,,,,,,,,,,,,,,,,,,,,,
,,,,,,,,,,,,,,,,,,,,1,1,2021-01-05_00h41.05.539,CL_C2S3,2020.1.3,Win32,60,,,,,,,,,,,,,1,0,"[99,99,99]",1,1,Hand,u,TR,0,0,36,1,1,0.22729225,99,i,1.30141,0,1,,,,,,,,,,,,,,,,,,35,0,35,0,1,,,,,,,,,,,,,,,,,,,,,,,,,,,,,,,,,,,,,,,,,,,,,,,,,,,,,,,,,,,,
,,,,,,,,,,,,,,,,,,,,1,1,2021-01-05_00h41.05.539,CL_C2S3,2020.1.3,Win32,60,,,,,,,,,,,,,,,,,,,,,,,,,,,,,,,,,,,,,,,,,i,1,1.3342,0,0,0,0,1,,,,,,,,,,,,,,,,,,,,,,,,,,,,,,,,,,,,,,,,,,,,,,,,,,,,,,,,,,,,,,,,,
,,,,,,,,,,,,,,,,,,,,1,1,2021-01-05_00h41.05.539,CL_C2S3,2020.1.3,Win32,60,,,,,,,,,,,,,2,0,"[99,99,99]",2,0,Hand,i,TR,0,0,37,1,1,1.071685695,99,i,1.3342,1,1,,,,,,,,,,,,,,,,,,36,0,36,0,1,,,,,,,,,,,,,,,,,,,,,,,,,,,,,,,,,,,,,,,,,,,,,,,,,,,,,,,,,,,,
,,,,,,,,,,,,,,,,,,,,1,1,2021-01-05_00h41.05.539,CL_C2S3,2020.1.3,Win32,60,,,,,,,,,,,,,,,,,,,,,,,,,,,,,,,,,,,,,,,,,h,1,1.30018,0,0,0,0,1,,,,,,,,,,,,,,,,,,,,,,,,,,,,,,,,,,,,,,,,,,,,,,,,,,,,,,,,,,,,,,,,,
,,,,,,,,,,,,,,,,,,,,1,1,2021-01-05_00h41.05.539,CL_C2S3,2020.1.3,Win32,60,,,,,,,,,,,,,0,0,"[99,99,99]",0,0,Hand,h,TR,0,0,38,1,1,0.653417606,99,h,1.30018,1,1,,,,,,,,,,,,,,,,,,37,0,37,0,1,,,,,,,,,,,,,,,,,,,,,,,,,,,,,,,,,,,,,,,,,,,,,,,,,,,,,,,,,,,,
,,,,,,,,,,,,,,,,,,,,1,1,2021-01-05_00h41.05.539,CL_C2S3,2020.1.3,Win32,60,,,,,,,,,,,,,,,,,,,,,,,,,,,,,,,,,,,,,,,,,u,0,1.301095,0,0,0,0,1,,,,,,,,,,,,,,,,,,,,,,,,,,,,,,,,,,,,,,,,,,,,,,,,,,,,,,,,,,,,,,,,,
,,,,,,,,,,,,,,,,,,,,1,1,2021-01-05_00h41.05.539,CL_C2S3,2020.1.3,Win32,60,,,,,,,,,,,,,2,0,"[99,99,99]",2,0,Hand,i,TR,0,0,39,1,1,0.164573683,99,u,1.301095,0,1,,,,,,,,,,,,,,,,,,38,0,38,0,1,,,,,,,,,,,,,,,,,,,,,,,,,,,,,,,,,,,,,,,,,,,,,,,,,,,,,,,,,,,,
,,,,,,,,,,,,,,,,,,,,1,1,2021-01-05_00h41.05.539,CL_C2S3,2020.1.3,Win32,60,,,,,,,,,,,,,,,,,,,,,,,,,,,,,,,,,,,,,,,,,u,1,1.26709,0,0,0,0,1,,,,,,,,,,,,,,,,,,,,,,,,,,,,,,,,,,,,,,,,,,,,,,,,,,,,,,,,,,,,,,,,,
,,,,,,,,,,,,,,,,,,,,1,1,2021-01-05_00h41.05.539,CL_C2S3,2020.1.3,Win32,60,,,,,,,,,,,,,1,0,"[99,99,99]",1,1,Hand,u,TR,0,0,40,1,1,0.866708739,99,u,1.26709,1,1,,,,,,,,,,,,,,,,,,39,0,39,0,1,,,,,,,,,,,,,,,,,,,,,,,,,,,,,,,,,,,,,,,,,,,,,,,,,,,,,,,,,,,,
,,,,,,,,,,,,,,,,,,,,1,1,2021-01-05_00h41.05.539,CL_C2S3,2020.1.3,Win32,60,,,,,,,,,,,,,,,,,,,,,,,,,,,,,,,,,,,,,,,,,h,1,1.267025,0,0,0,0,1,,,,,,,,,,,,,,,,,,,,,,,,,,,,,,,,,,,,,,,,,,,,,,,,,,,,,,,,,,,,,,,,,
,,,,,,,,,,,,,,,,,,,,1,1,2021-01-05_00h41.05.539,CL_C2S3,2020.1.3,Win32,60,,,,,,,,,,,,,0,0,"[99,99,99]",0,0,Hand,h,TR,0,0,41,1,1,0.893502427,99,h,1.267025,1,1,,,,,,,,,,,,,,,,,,40,0,40,0,1,,,,,,,,,,,,,,,,,,,,,,,,,,,,,,,,,,,,,,,,,,,,,,,,,,,,,,,,,,,,
,,,,,,,,,,,,,,,,,,,,1,1,2021-01-05_00h41.05.539,CL_C2S3,2020.1.3,Win32,60,,,,,,,,,,,,,,,,,,,,,,,,,,,,,,,,,,,,,,,,,h,0,1.25092,0,0,0,0,1,,,,,,,,,,,,,,,,,,,,,,,,,,,,,,,,,,,,,,,,,,,,,,,,,,,,,,,,,,,,,,,,,
,,,,,,,,,,,,,,,,,,,,1,1,2021-01-05_00h41.05.539,CL_C2S3,2020.1.3,Win32,60,,,,,,,,,,,,,1,0,"[99,99,99]",1,1,Hand,u,TR,0,0,42,1,1,-0.010656926,99,h,1.25092,0,1,,,,,,,,,,,,,,,,,,41,0,41,0,1,,,,,,,,,,,,,,,,,,,,,,,,,,,,,,,,,,,,,,,,,,,,,,,,,,,,,,,,,,,,
,,,,,,,,,,,,,,,,,,,,1,1,2021-01-05_00h41.05.539,CL_C2S3,2020.1.3,Win32,60,,,,,,,,,,,,,,,,,,,,,,,,,,,,,,,,,,,,,,,,,u,0,1.28367,0,0,0,0,1,,,,,,,,,,,,,,,,,,,,,,,,,,,,,,,,,,,,,,,,,,,,,,,,,,,,,,,,,,,,,,,,,
,,,,,,,,,,,,,,,,,,,,1,1,2021-01-05_00h41.05.539,CL_C2S3,2020.1.3,Win32,60,,,,,,,,,,,,,0,0,"[99,99,99]",0,0,Hand,h,TR,0,0,43,1,1,0.236106787,99,u,1.28367,0,1,,,,,,,,,,,,,,,,,,42,0,42,0,1,,,,,,,,,,,,,,,,,,,,,,,,,,,,,,,,,,,,,,,,,,,,,,,,,,,,,,,,,,,,
,,,,,,,,,,,,,,,,,,,,1,1,2021-01-05_00h41.05.539,CL_C2S3,2020.1.3,Win32,60,,,,,,,,,,,,,,,,,,,,,,,,,,,,,,,,,,,,,,,,,i,1,1.266955,0,0,0,0,1,,,,,,,,,,,,,,,,,,,,,,,,,,,,,,,,,,,,,,,,,,,,,,,,,,,,,,,,,,,,,,,,,
,,,,,,,,,,,,,,,,,,,,1,1,2021-01-05_00h41.05.539,CL_C2S3,2020.1.3,Win32,60,,,,,,,,,,,,,2,0,"[99,99,99]",2,0,Hand,i,TR,0,0,44,1,1,0.704857717,99,i,1.266955,1,1,,,,,,,,,,,,,,,,,,43,0,43,0,1,,,,,,,,,,,,,,,,,,,,,,,,,,,,,,,,,,,,,,,,,,,,,,,,,,,,,,,,,,,,
,,,,,,,,,,,,,,,,,,,,1,1,2021-01-05_00h41.05.539,CL_C2S3,2020.1.3,Win32,60,,,,,,,,,,,,,,,,,,,,,,,,,,,,,,,,,,,,,,,,,u,1,1.22651,0,0,0,0,1,,,,,,,,,,,,,,,,,,,,,,,,,,,,,,,,,,,,,,,,,,,,,,,,,,,,,,,,,,,,,,,,,
,,,,,,,,,,,,,,,,,,,,1,1,2021-01-05_00h41.05.539,CL_C2S3,2020.1.3,Win32,60,,,,,,,,,,,,,1,0,"[99,99,99]",1,1,Hand,u,TR,0,0,45,1,1,1.083013557,99,u,1.22651,1,1,,,,,,,,,,,,,,,,,,44,0,44,0,1,,,,,,,,,,,,,,,,,,,,,,,,,,,,,,,,,,,,,,,,,,,,,,,,,,,,,,,,,,,,
,,,,,,,,,,,,,,,,,,,,1,1,2021-01-05_00h41.05.539,CL_C2S3,2020.1.3,Win32,60,,,,,,,,,,,,,,,,,,,,,,,,,,,,,,,,,,,,,,,,,h,0,1.217915,0,0,0,0,1,,,,,,,,,,,,,,,,,,,,,,,,,,,,,,,,,,,,,,,,,,,,,,,,,,,,,,,,,,,,,,,,,
,,,,,,,,,,,,,,,,,,,,1,1,2021-01-05_00h41.05.539,CL_C2S3,2020.1.3,Win32,60,,,,,,,,,,,,,2,0,"[99,99,99]",2,0,Hand,i,TR,0,0,46,1,1,0.08171389,99,h,1.217915,0,1,,,,,,,,,,,,,,,,,,45,0,45,0,1,,,,,,,,,,,,,,,,,,,,,,,,,,,,,,,,,,,,,,,,,,,,,,,,,,,,,,,,,,,,
,,,,,,,,,,,,,,,,,,,,1,1,2021-01-05_00h41.05.539,CL_C2S3,2020.1.3,Win32,60,,,,,,,,,,,,,,,,,,,,,,,,,,,,,,,,,,,,,,,,,u,1,1.34797,0,0,0,0,1,,,,,,,,,,,,,,,,,,,,,,,,,,,,,,,,,,,,,,,,,,,,,,,,,,,,,,,,,,,,,,,,,
,,,,,,,,,,,,,,,,,,,,1,1,2021-01-05_00h41.05.539,CL_C2S3,2020.1.3,Win32,60,,,,,,,,,,,,,1,0,"[99,99,99]",1,1,Hand,u,TR,0,0,47,1,1,-0.086132708,99,u,1.34797,1,1,,,,,,,,,,,,,,,,,,46,0,46,0,1,,,,,,,,,,,,,,,,,,,,,,,,,,,,,,,,,,,,,,,,,,,,,,,,,,,,,,,,,,,,
,,,,,,,,,,,,,,,,,,,,1,1,2021-01-05_00h41.05.539,CL_C2S3,2020.1.3,Win32,60,,,,,,,,,,,,,,,,,,,,,,,,,,,,,,,,,,,,,,,,,u,1,1.45018,0,0,0,0,1,,,,,,,,,,,,,,,,,,,,,,,,,,,,,,,,,,,,,,,,,,,,,,,,,,,,,,,,,,,,,,,,,
,,,,,,,,,,,,,,,,,,,,1,1,2021-01-05_00h41.05.539,CL_C2S3,2020.1.3,Win32,60,,,,,,,,,,,,,1,0,"[99,99,99]",1,1,Hand,u,TR,0,0,48,1,1,0.208094697,99,u,1.45018,1,1,,,,,,,,,,,,,,,,,,47,0,47,0,1,,,,,,,,,,,,,,,,,,,,,,,,,,,,,,,,,,,,,,,,,,,,,,,,,,,,,,,,,,,,
,,,,,,,,,,,,,,,,,,,,1,1,2021-01-05_00h41.05.539,CL_C2S3,2020.1.3,Win32,60,,,,,,,,,,,,,,,,,,,,,,,,,,,,,,,,,,,,,,,,,i,0,1.432095,0,0,0,0,1,,,,,,,,,,,,,,,,,,,,,,,,,,,,,,,,,,,,,,,,,,,,,,,,,,,,,,,,,,,,,,,,,
,,,,,,,,,,,,,,,,,,,,1,1,2021-01-05_00h41.05.539,CL_C2S3,2020.1.3,Win32,60,,,,,,,,,,,,,0,0,"[99,99,99]",0,0,Hand,h,TR,0,0,49,1,1,-0.095766406,99,i,1.432095,0,1,,,,,,,,,,,,,,,,,,48,0,48,0,1,,,,,,,,,,,,,,,,,,,,,,,,,,,,,,,,,,,,,,,,,,,,,,,,,,,,,,,,,,,,
,,,,,,,,,,,,,,,,,,,,1,1,2021-01-05_00h41.05.539,CL_C2S3,2020.1.3,Win32,60,,,,,,,,,,,,,,,,,,,,,,,,,,,,,,,,,,,,,,,,,,0,,,,,,,,,,,,h,18.378025,0,0,0,0,1,,,,,,,,,,,,,,,,,,,,,,,,,,,,,,,,,,,,,,,,,,,,,,,,,,,,,
,,,,,,,,,,,,,,,,,,,,1,1,2021-01-05_00h41.05.539,CL_C2S3,2020.1.3,Win32,60,,,,,,,,,,,,,2,0,"[99,99,99]",2,0,Hand,i,TR,0,0,50,1,1,0.013402467,99,,,0,1,,,,,,,,,,,,,,,,,,49,0,49,0,1,,,,,,,,,,,,,,,,,,,,,,,,,,,,,,,,,,,,,,,,,,,,,,,,,,,,,,,,,,,,
,,,,,,,,,,,,,,,,,,,,1,1,2021-01-05_00h41.05.539,CL_C2S3,2020.1.3,Win32,60,,,,,,,,,,,,,,,,,,,,,,,,,,,,,,,,,,,,,,,,,h,1,1.250995,0,0,0,0,1,,,,,,,,,,,,,,,,,,,,,,,,,,,,,,,,,,,,,,,,,,,,,,,,,,,,,,,,,,,,,,,,,
,,,,,,,,,,,,,,,,,,,,1,1,2021-01-05_00h41.05.539,CL_C2S3,2020.1.3,Win32,60,,,,,,,,,,,,,0,0,"[99,99,99]",0,0,Hand,h,TR,0,0,51,1,1,0.701379471,99,h,1.250995,1,1,,,,,,,,,,,,,,,,,,50,0,50,0,1,,,,,,,,,,,,,,,,,,,,,,,,,,,,,,,,,,,,,,,,,,,,,,,,,,,,,,,,,,,,
,,,,,,,,,,,,,,,,,,,,1,1,2021-01-05_00h41.05.539,CL_C2S3,2020.1.3,Win32,60,,,,,,,,,,,,,,,,,,,,,,,,,,,,,,,,,,,,,,,,,u,1,1.21733,0,0,0,0,1,,,,,,,,,,,,,,,,,,,,,,,,,,,,,,,,,,,,,,,,,,,,,,,,,,,,,,,,,,,,,,,,,
,,,,,,,,,,,,,,,,,,,,1,1,2021-01-05_00h41.05.539,CL_C2S3,2020.1.3,Win32,60,,,,,,,,,,,,,1,0,"[99,99,99]",1,1,Hand,u,TR,0,0,52,1,1,0.780245468,99,u,1.21733,1,1,,,,,,,,,,,,,,,,,,51,0,51,0,1,,,,,,,,,,,,,,,,,,,,,,,,,,,,,,,,,,,,,,,,,,,,,,,,,,,,,,,,,,,,
,,,,,,,,,,,,,,,,,,,,1,1,2021-01-05_00h41.05.539,CL_C2S3,2020.1.3,Win32,60,,,,,,,,,,,,,,,,,,,,,,,,,,,,,,,,,,,,,,,,,i,1,1.28418,0,0,0,0,1,,,,,,,,,,,,,,,,,,,,,,,,,,,,,,,,,,,,,,,,,,,,,,,,,,,,,,,,,,,,,,,,,
,,,,,,,,,,,,,,,,,,,,1,1,2021-01-05_00h41.05.539,CL_C2S3,2020.1.3,Win32,60,,,,,,,,,,,,,2,0,"[99,99,99]",2,0,Hand,i,TR,0,0,53,1,1,0.328919007,99,i,1.28418,1,1,,,,,,,,,,,,,,,,,,52,0,52,0,1,,,,,,,,,,,,,,,,,,,,,,,,,,,,,,,,,,,,,,,,,,,,,,,,,,,,,,,,,,,,
,,,,,,,,,,,,,,,,,,,,1,1,2021-01-05_00h41.05.539,CL_C2S3,2020.1.3,Win32,60,,,,,,,,,,,,,,,,,,,,,,,,,,,,,,,,,,,,,,,,,h,1,1.31733,0,0,0,0,1,,,,,,,,,,,,,,,,,,,,,,,,,,,,,,,,,,,,,,,,,,,,,,,,,,,,,,,,,,,,,,,,,
,,,,,,,,,,,,,,,,,,,,1,1,2021-01-05_00h41.05.539,CL_C2S3,2020.1.3,Win32,60,,,,,,,,,,,,,0,0,"[99,99,99]",0,0,Hand,h,TR,0,0,54,1,1,0.510420976,99,h,1.31733,1,1,,,,,,,,,,,,,,,,,,53,0,53,0,1,,,,,,,,,,,,,,,,,,,,,,,,,,,,,,,,,,,,,,,,,,,,,,,,,,,,,,,,,,,,
,,,,,,,,,,,,,,,,,,,,1,1,2021-01-05_00h41.05.539,CL_C2S3,2020.1.3,Win32,60,,,,,,,,,,,,,,,,,,,,,,,,,,,,,,,,,,,,,,,,,u,1,1.284825,0,0,0,0,1,,,,,,,,,,,,,,,,,,,,,,,,,,,,,,,,,,,,,,,,,,,,,,,,,,,,,,,,,,,,,,,,,
,,,,,,,,,,,,,,,,,,,,1,1,2021-01-05_00h41.05.539,CL_C2S3,2020.1.3,Win32,60,,,,,,,,,,,,,1,0,"[99,99,99]",1,1,Hand,u,TR,0,0,55,1,1,0.150230158,99,u,1.284825,1,1,,,,,,,,,,,,,,,,,,54,0,54,0,1,,,,,,,,,,,,,,,,,,,,,,,,,,,,,,,,,,,,,,,,,,,,,,,,,,,,,,,,,,,,
,,,,,,,,,,,,,,,,,,,,1,1,2021-01-05_00h41.05.539,CL_C2S3,2020.1.3,Win32,60,,,,,,,,,,,,,,,,,,,,,,,,,,,,,,,,,,,,,,,,,h,1,1.234055,0,0,0,0,1,,,,,,,,,,,,,,,,,,,,,,,,,,,,,,,,,,,,,,,,,,,,,,,,,,,,,,,,,,,,,,,,,
,,,,,,,,,,,,,,,,,,,,1,1,2021-01-05_00h41.05.539,CL_C2S3,2020.1.3,Win32,60,,,,,,,,,,,,,0,0,"[99,99,99]",0,0,Hand,h,TR,0,0,56,1,1,0.303893446,99,h,1.234055,1,1,,,,,,,,,,,,,,,,,,55,0,55,0,1,,,,,,,,,,,,,,,,,,,,,,,,,,,,,,,,,,,,,,,,,,,,,,,,,,,,,,,,,,,,
,,,,,,,,,,,,,,,,,,,,1,1,2021-01-05_00h41.05.539,CL_C2S3,2020.1.3,Win32,60,,,,,,,,,,,,,,,,,,,,,,,,,,,,,,,,,,,,,,,,,u,0,1.266725,0,0,0,0,1,,,,,,,,,,,,,,,,,,,,,,,,,,,,,,,,,,,,,,,,,,,,,,,,,,,,,,,,,,,,,,,,,
,,,,,,,,,,,,,,,,,,,,1,1,2021-01-05_00h41.05.539,CL_C2S3,2020.1.3,Win32,60,,,,,,,,,,,,,2,0,"[99,99,99]",2,0,Hand,i,TR,0,0,57,1,1,0.040336296,99,u,1.266725,0,1,,,,,,,,,,,,,,,,,,56,0,56,0,1,,,,,,,,,,,,,,,,,,,,,,,,,,,,,,,,,,,,,,,,,,,,,,,,,,,,,,,,,,,,
,,,,,,,,,,,,,,,,,,,,1,1,2021-01-05_00h41.05.539,CL_C2S3,2020.1.3,Win32,60,,,,,,,,,,,,,,,,,,,,,,,,,,,,,,,,,,,,,,,,,u,1,1.233495,0,0,0,0,1,,,,,,,,,,,,,,,,,,,,,,,,,,,,,,,,,,,,,,,,,,,,,,,,,,,,,,,,,,,,,,,,,
,,,,,,,,,,,,,,,,,,,,1,1,2021-01-05_00h41.05.539,CL_C2S3,2020.1.3,Win32,60,,,,,,,,,,,,,1,0,"[99,99,99]",1,1,Hand,u,TR,0,0,58,1,1,0.9411892,99,u,1.233495,1,1,,,,,,,,,,,,,,,,,,57,0,57,0,1,,,,,,,,,,,,,,,,,,,,,,,,,,,,,,,,,,,,,,,,,,,,,,,,,,,,,,,,,,,,
,,,,,,,,,,,,,,,,,,,,1,1,2021-01-05_00h41.05.539,CL_C2S3,2020.1.3,Win32,60,,,,,,,,,,,,,,,,,,,,,,,,,,,,,,,,,,,,,,,,,h,1,1.300125,0,0,0,0,1,,,,,,,,,,,,,,,,,,,,,,,,,,,,,,,,,,,,,,,,,,,,,,,,,,,,,,,,,,,,,,,,,
,,,,,,,,,,,,,,,,,,,,1,1,2021-01-05_00h41.05.539,CL_C2S3,2020.1.3,Win32,60,,,,,,,,,,,,,0,0,"[99,99,99]",0,0,Hand,h,TR,0,0,59,1,1,0.699773555,99,h,1.300125,1,1,,,,,,,,,,,,,,,,,,58,0,58,0,1,,,,,,,,,,,,,,,,,,,,,,,,,,,,,,,,,,,,,,,,,,,,,,,,,,,,,,,,,,,,
,,,,,,,,,,,,,,,,,,,,1,1,2021-01-05_00h41.05.539,CL_C2S3,2020.1.3,Win32,60,,,,,,,,,,,,,,,,,,,,,,,,,,,,,,,,,,,,,,,,,i,1,1.266985,0,0,0,0,1,,,,,,,,,,,,,,,,,,,,,,,,,,,,,,,,,,,,,,,,,,,,,,,,,,,,,,,,,,,,,,,,,
,,,,,,,,,,,,,,,,,,,,1,1,2021-01-05_00h41.05.539,CL_C2S3,2020.1.3,Win32,60,,,,,,,,,,,,,2,0,"[99,99,99]",2,0,Hand,i,TR,0,0,60,1,1,0.691567447,99,i,1.266985,1,1,,,,,,,,,,,,,,,,,,59,0,59,0,1,,,,,,,,,,,,,,,,,,,,,,,,,,,,,,,,,,,,,,,,,,,,,,,,,,,,,,,,,,,,
,,,,,,,,,,,,,,,,,,,,1,1,2021-01-05_00h41.05.539,CL_C2S3,2020.1.3,Win32,60,,,,,,,,,,,,,,,,,,,,,,,,,,,,,,,,,,,,,,,,,,,,,,,,,,,,,,,,,,,,,0,0,0,0,1,,,,,,,,,,,,,,,,,,,,,,,,,,,,,,,,,,,,,,,,,,,,,,,,
,,,,,,,,,,,,,,,,,,,,1,1,2021-01-05_00h41.05.539,CL_C2S3,2020.1.3,Win32,60,,,,,,,,,,,,,,,,,,,,,,,,,,,,,,,,,,,,,,,h,1.605185,h,0,1.35078,0,0,0,0,1,,,,,,,,,,,,,,,,,,,,,,,,,,,,,,,,,,,,,,,,,,,,,,,,,,,,,,,,,,,,,,,,,
,,,,,,,,,,,,,,,,,,,,1,1,2021-01-05_00h41.05.539,CL_C2S3,2020.1.3,Win32,60,,,,,,,,,,,,,1,0,"[99,99,99]",1,1,Hand,u,TR,0,0,1,1,2,-0.049919338,99,h,1.35078,0,1,,,,,,,,,,,,,,,,,,0,0,0,0,1,,,,,,,,,,,,,,,,,,,,,,,,,,,,,,,,,,,,,,,,,,,,,,,,,,,,,,,,,,,,
,,,,,,,,,,,,,,,,,,,,1,1,2021-01-05_00h41.05.539,CL_C2S3,2020.1.3,Win32,60,,,,,,,,,,,,,,,,,,,,,,,,,,,,,,,,,,,,,,,,,u,0,1.301105,0,0,0,0,1,,,,,,,,,,,,,,,,,,,,,,,,,,,,,,,,,,,,,,,,,,,,,,,,,,,,,,,,,,,,,,,,,
,,,,,,,,,,,,,,,,,,,,1,1,2021-01-05_00h41.05.539,CL_C2S3,2020.1.3,Win32,60,,,,,,,,,,,,,2,0,"[99,99,99]",2,0,Hand,i,TR,0,0,2,1,2,-0.022181141,99,u,1.301105,0,1,,,,,,,,,,,,,,,,,,1,0,1,0,1,,,,,,,,,,,,,,,,,,,,,,,,,,,,,,,,,,,,,,,,,,,,,,,,,,,,,,,,,,,,
,,,,,,,,,,,,,,,,,,,,1,1,2021-01-05_00h41.05.539,CL_C2S3,2020.1.3,Win32,60,,,,,,,,,,,,,,,,,,,,,,,,,,,,,,,,,,,,,,,,,i,0,1.333515,0,0,0,0,1,,,,,,,,,,,,,,,,,,,,,,,,,,,,,,,,,,,,,,,,,,,,,,,,,,,,,,,,,,,,,,,,,
,,,,,,,,,,,,,,,,,,,,1,1,2021-01-05_00h41.05.539,CL_C2S3,2020.1.3,Win32,60,,,,,,,,,,,,,0,0,"[99,99,99]",0,0,Hand,h,TR,0,0,3,1,2,0.179507726,99,i,1.333515,0,1,,,,,,,,,,,,,,,,,,2,0,2,0,1,,,,,,,,,,,,,,,,,,,,,,,,,,,,,,,,,,,,,,,,,,,,,,,,,,,,,,,,,,,,
,,,,,,,,,,,,,,,,,,,,1,1,2021-01-05_00h41.05.539,CL_C2S3,2020.1.3,Win32,60,,,,,,,,,,,,,,,,,,,,,,,,,,,,,,,,,,,,,,,,,u,1,1.235035,0,0,0,0,1,,,,,,,,,,,,,,,,,,,,,,,,,,,,,,,,,,,,,,,,,,,,,,,,,,,,,,,,,,,,,,,,,
,,,,,,,,,,,,,,,,,,,,1,1,2021-01-05_00h41.05.539,CL_C2S3,2020.1.3,Win32,60,,,,,,,,,,,,,1,0,"[99,99,99]",1,1,Hand,u,TR,0,0,4,1,2,0.485551178,99,u,1.235035,1,1,,,,,,,,,,,,,,,,,,3,0,3,0,1,,,,,,,,,,,,,,,,,,,,,,,,,,,,,,,,,,,,,,,,,,,,,,,,,,,,,,,,,,,,
,,,,,,,,,,,,,,,,,,,,1,1,2021-01-05_00h41.05.539,CL_C2S3,2020.1.3,Win32,60,,,,,,,,,,,,,,,,,,,,,,,,,,,,,,,,,,,,,,,,,i,1,1.29446,0,0,0,0,1,,,,,,,,,,,,,,,,,,,,,,,,,,,,,,,,,,,,,,,,,,,,,,,,,,,,,,,,,,,,,,,,,
,,,,,,,,,,,,,,,,,,,,1,1,2021-01-05_00h41.05.539,CL_C2S3,2020.1.3,Win32,60,,,,,,,,,,,,,2,0,"[99,99,99]",2,0,Hand,i,TR,0,0,5,1,2,0.707986007,99,i,1.29446,1,1,,,,,,,,,,,,,,,,,,4,0,4,0,1,,,,,,,,,,,,,,,,,,,,,,,,,,,,,,,,,,,,,,,,,,,,,,,,,,,,,,,,,,,,
,,,,,,,,,,,,,,,,,,,,1,1,2021-01-05_00h41.05.539,CL_C2S3,2020.1.3,Win32,60,,,,,,,,,,,,,,,,,,,,,,,,,,,,,,,,,,,,,,,,,h,1,1.30188,0,0,0,0,1,,,,,,,,,,,,,,,,,,,,,,,,,,,,,,,,,,,,,,,,,,,,,,,,,,,,,,,,,,,,,,,,,
,,,,,,,,,,,,,,,,,,,,1,1,2021-01-05_00h41.05.539,CL_C2S3,2020.1.3,Win32,60,,,,,,,,,,,,,0,0,"[99,99,99]",0,0,Hand,h,TR,0,0,6,1,2,0.747409513,99,h,1.30188,1,1,,,,,,,,,,,,,,,,,,5,0,5,0,1,,,,,,,,,,,,,,,,,,,,,,,,,,,,,,,,,,,,,,,,,,,,,,,,,,,,,,,,,,,,
,,,,,,,,,,,,,,,,,,,,1,1,2021-01-05_00h41.05.539,CL_C2S3,2020.1.3,Win32,60,,,,,,,,,,,,,,,,,,,,,,,,,,,,,,,,,,,,,,,,,u,1,1.28383,0,0,0,0,1,,,,,,,,,,,,,,,,,,,,,,,,,,,,,,,,,,,,,,,,,,,,,,,,,,,,,,,,,,,,,,,,,
,,,,,,,,,,,,,,,,,,,,1,1,2021-01-05_00h41.05.539,CL_C2S3,2020.1.3,Win32,60,,,,,,,,,,,,,1,0,"[99,99,99]",1,1,Hand,u,TR,0,0,7,1,2,0.683137931,99,u,1.28383,1,1,,,,,,,,,,,,,,,,,,6,0,6,0,1,,,,,,,,,,,,,,,,,,,,,,,,,,,,,,,,,,,,,,,,,,,,,,,,,,,,,,,,,,,,
,,,,,,,,,,,,,,,,,,,,1,1,2021-01-05_00h41.05.539,CL_C2S3,2020.1.3,Win32,60,,,,,,,,,,,,,,,,,,,,,,,,,,,,,,,,,,,,,,,,,i,0,1.318355,0,0,0,0,1,,,,,,,,,,,,,,,,,,,,,,,,,,,,,,,,,,,,,,,,,,,,,,,,,,,,,,,,,,,,,,,,,
,,,,,,,,,,,,,,,,,,,,1,1,2021-01-05_00h41.05.539,CL_C2S3,2020.1.3,Win32,60,,,,,,,,,,,,,1,0,"[99,99,99]",1,1,Hand,u,TR,0,0,8,1,2,0.223557294,99,i,1.318355,0,1,,,,,,,,,,,,,,,,,,7,0,7,0,1,,,,,,,,,,,,,,,,,,,,,,,,,,,,,,,,,,,,,,,,,,,,,,,,,,,,,,,,,,,,
,,,,,,,,,,,,,,,,,,,,1,1,2021-01-05_00h41.05.539,CL_C2S3,2020.1.3,Win32,60,,,,,,,,,,,,,,,,,,,,,,,,,,,,,,,,,,,,,,,,,h,1,1.35157,0,0,0,0,1,,,,,,,,,,,,,,,,,,,,,,,,,,,,,,,,,,,,,,,,,,,,,,,,,,,,,,,,,,,,,,,,,
,,,,,,,,,,,,,,,,,,,,1,1,2021-01-05_00h41.05.539,CL_C2S3,2020.1.3,Win32,60,,,,,,,,,,,,,0,0,"[99,99,99]",0,0,Hand,h,TR,0,0,9,1,2,1.092253247,99,h,1.35157,1,1,,,,,,,,,,,,,,,,,,8,0,8,0,1,,,,,,,,,,,,,,,,,,,,,,,,,,,,,,,,,,,,,,,,,,,,,,,,,,,,,,,,,,,,
,,,,,,,,,,,,,,,,,,,,1,1,2021-01-05_00h41.05.539,CL_C2S3,2020.1.3,Win32,60,,,,,,,,,,,,,,,,,,,,,,,,,,,,,,,,,,,,,,,,,i,1,1.283945,0,0,0,0,1,,,,,,,,,,,,,,,,,,,,,,,,,,,,,,,,,,,,,,,,,,,,,,,,,,,,,,,,,,,,,,,,,
,,,,,,,,,,,,,,,,,,,,1,1,2021-01-05_00h41.05.539,CL_C2S3,2020.1.3,Win32,60,,,,,,,,,,,,,2,0,"[99,99,99]",2,0,Hand,i,TR,0,0,10,1,2,0.602252332,99,i,1.283945,1,1,,,,,,,,,,,,,,,,,,9,0,9,0,1,,,,,,,,,,,,,,,,,,,,,,,,,,,,,,,,,,,,,,,,,,,,,,,,,,,,,,,,,,,,
,,,,,,,,,,,,,,,,,,,,1,1,2021-01-05_00h41.05.539,CL_C2S3,2020.1.3,Win32,60,,,,,,,,,,,,,,,,,,,,,,,,,,,,,,,,,,,,,,,,,i,1,1.31727,0,0,0,0,1,,,,,,,,,,,,,,,,,,,,,,,,,,,,,,,,,,,,,,,,,,,,,,,,,,,,,,,,,,,,,,,,,
,,,,,,,,,,,,,,,,,,,,1,1,2021-01-05_00h41.05.539,CL_C2S3,2020.1.3,Win32,60,,,,,,,,,,,,,2,0,"[99,99,99]",2,0,Hand,i,TR,0,0,11,1,2,0.353389007,99,i,1.31727,1,1,,,,,,,,,,,,,,,,,,10,0,10,0,1,,,,,,,,,,,,,,,,,,,,,,,,,,,,,,,,,,,,,,,,,,,,,,,,,,,,,,,,,,,,
,,,,,,,,,,,,,,,,,,,,1,1,2021-01-05_00h41.05.539,CL_C2S3,2020.1.3,Win32,60,,,,,,,,,,,,,,,,,,,,,,,,,,,,,,,,,,,,,,,,,h,1,1.267125,0,0,0,0,1,,,,,,,,,,,,,,,,,,,,,,,,,,,,,,,,,,,,,,,,,,,,,,,,,,,,,,,,,,,,,,,,,
,,,,,,,,,,,,,,,,,,,,1,1,2021-01-05_00h41.05.539,CL_C2S3,2020.1.3,Win32,60,,,,,,,,,,,,,0,0,"[99,99,99]",0,0,Hand,h,TR,0,0,12,1,2,0.471186345,99,h,1.267125,1,1,,,,,,,,,,,,,,,,,,11,0,11,0,1,,,,,,,,,,,,,,,,,,,,,,,,,,,,,,,,,,,,,,,,,,,,,,,,,,,,,,,,,,,,
,,,,,,,,,,,,,,,,,,,,1,1,2021-01-05_00h41.05.539,CL_C2S3,2020.1.3,Win32,60,,,,,,,,,,,,,,,,,,,,,,,,,,,,,,,,,,,,,,,,,i,1,1.284765,0,0,0,0,1,,,,,,,,,,,,,,,,,,,,,,,,,,,,,,,,,,,,,,,,,,,,,,,,,,,,,,,,,,,,,,,,,
,,,,,,,,,,,,,,,,,,,,1,1,2021-01-05_00h41.05.539,CL_C2S3,2020.1.3,Win32,60,,,,,,,,,,,,,2,0,"[99,99,99]",2,0,Hand,i,TR,0,0,13,1,2,0.862270067,99,i,1.284765,1,1,,,,,,,,,,,,,,,,,,12,0,12,0,1,,,,,,,,,,,,,,,,,,,,,,,,,,,,,,,,,,,,,,,,,,,,,,,,,,,,,,,,,,,,
,,,,,,,,,,,,,,,,,,,,1,1,2021-01-05_00h41.05.539,CL_C2S3,2020.1.3,Win32,60,,,,,,,,,,,,,,,,,,,,,,,,,,,,,,,,,,,,,,,,,h,1,1.267495,0,0,0,0,1,,,,,,,,,,,,,,,,,,,,,,,,,,,,,,,,,,,,,,,,,,,,,,,,,,,,,,,,,,,,,,,,,
,,,,,,,,,,,,,,,,,,,,1,1,2021-01-05_00h41.05.539,CL_C2S3,2020.1.3,Win32,60,,,,,,,,,,,,,0,0,"[99,99,99]",0,0,Hand,h,TR,0,0,14,1,2,0.632878946,99,h,1.267495,1,1,,,,,,,,,,,,,,,,,,13,0,13,0,1,,,,,,,,,,,,,,,,,,,,,,,,,,,,,,,,,,,,,,,,,,,,,,,,,,,,,,,,,,,,
,,,,,,,,,,,,,,,,,,,,1,1,2021-01-05_00h41.05.539,CL_C2S3,2020.1.3,Win32,60,,,,,,,,,,,,,,,,,,,,,,,,,,,,,,,,,,,,,,,,,u,1,1.337955,0,0,0,0,1,,,,,,,,,,,,,,,,,,,,,,,,,,,,,,,,,,,,,,,,,,,,,,,,,,,,,,,,,,,,,,,,,
,,,,,,,,,,,,,,,,,,,,1,1,2021-01-05_00h41.05.539,CL_C2S3,2020.1.3,Win32,60,,,,,,,,,,,,,1,0,"[99,99,99]",1,1,Hand,u,TR,0,0,15,1,2,0.518150935,99,u,1.337955,1,1,,,,,,,,,,,,,,,,,,14,0,14,0,1,,,,,,,,,,,,,,,,,,,,,,,,,,,,,,,,,,,,,,,,,,,,,,,,,,,,,,,,,,,,
,,,,,,,,,,,,,,,,,,,,1,1,2021-01-05_00h41.05.539,CL_C2S3,2020.1.3,Win32,60,,,,,,,,,,,,,,,,,,,,,,,,,,,,,,,,,,,,,,,,,i,1,1.28402,0,0,0,0,1,,,,,,,,,,,,,,,,,,,,,,,,,,,,,,,,,,,,,,,,,,,,,,,,,,,,,,,,,,,,,,,,,
,,,,,,,,,,,,,,,,,,,,1,1,2021-01-05_00h41.05.539,CL_C2S3,2020.1.3,Win32,60,,,,,,,,,,,,,2,0,"[99,99,99]",2,0,Hand,i,TR,0,0,16,1,2,0.298584056,99,i,1.28402,1,1,,,,,,,,,,,,,,,,,,15,0,15,0,1,,,,,,,,,,,,,,,,,,,,,,,,,,,,,,,,,,,,,,,,,,,,,,,,,,,,,,,,,,,,
,,,,,,,,,,,,,,,,,,,,1,1,2021-01-05_00h41.05.539,CL_C2S3,2020.1.3,Win32,60,,,,,,,,,,,,,,,,,,,,,,,,,,,,,,,,,,,,,,,,,i,1,1.30126,0,0,0,0,1,,,,,,,,,,,,,,,,,,,,,,,,,,,,,,,,,,,,,,,,,,,,,,,,,,,,,,,,,,,,,,,,,
,,,,,,,,,,,,,,,,,,,,1,1,2021-01-05_00h41.05.539,CL_C2S3,2020.1.3,Win32,60,,,,,,,,,,,,,2,0,"[99,99,99]",2,0,Hand,i,TR,0,0,17,1,2,0.409867898,99,i,1.30126,1,1,,,,,,,,,,,,,,,,,,16,0,16,0,1,,,,,,,,,,,,,,,,,,,,,,,,,,,,,,,,,,,,,,,,,,,,,,,,,,,,,,,,,,,,
,,,,,,,,,,,,,,,,,,,,1,1,2021-01-05_00h41.05.539,CL_C2S3,2020.1.3,Win32,60,,,,,,,,,,,,,,,,,,,,,,,,,,,,,,,,,,,,,,,,,u,1,1.31658,0,0,0,0,1,,,,,,,,,,,,,,,,,,,,,,,,,,,,,,,,,,,,,,,,,,,,,,,,,,,,,,,,,,,,,,,,,
,,,,,,,,,,,,,,,,,,,,1,1,2021-01-05_00h41.05.539,CL_C2S3,2020.1.3,Win32,60,,,,,,,,,,,,,1,0,"[99,99,99]",1,1,Hand,u,TR,0,0,18,1,2,1.007194332,99,u,1.31658,1,1,,,,,,,,,,,,,,,,,,17,0,17,0,1,,,,,,,,,,,,,,,,,,,,,,,,,,,,,,,,,,,,,,,,,,,,,,,,,,,,,,,,,,,,
,,,,,,,,,,,,,,,,,,,,1,1,2021-01-05_00h41.05.539,CL_C2S3,2020.1.3,Win32,60,,,,,,,,,,,,,,,,,,,,,,,,,,,,,,,,,,,,,,,,,h,1,1.35078,0,0,0,0,1,,,,,,,,,,,,,,,,,,,,,,,,,,,,,,,,,,,,,,,,,,,,,,,,,,,,,,,,,,,,,,,,,
,,,,,,,,,,,,,,,,,,,,1,1,2021-01-05_00h41.05.539,CL_C2S3,2020.1.3,Win32,60,,,,,,,,,,,,,0,0,"[99,99,99]",0,0,Hand,h,TR,0,0,19,1,2,0.03778068,99,h,1.35078,1,1,,,,,,,,,,,,,,,,,,18,0,18,0,1,,,,,,,,,,,,,,,,,,,,,,,,,,,,,,,,,,,,,,,,,,,,,,,,,,,,,,,,,,,,
,,,,,,,,,,,,,,,,,,,,1,1,2021-01-05_00h41.05.539,CL_C2S3,2020.1.3,Win32,60,,,,,,,,,,,,,,,,,,,,,,,,,,,,,,,,,,,,,,,,,h,1,1.33723,0,0,0,0,1,,,,,,,,,,,,,,,,,,,,,,,,,,,,,,,,,,,,,,,,,,,,,,,,,,,,,,,,,,,,,,,,,
,,,,,,,,,,,,,,,,,,,,1,1,2021-01-05_00h41.05.539,CL_C2S3,2020.1.3,Win32,60,,,,,,,,,,,,,0,0,"[99,99,99]",0,0,Hand,h,TR,0,0,20,1,2,0.045441813,99,h,1.33723,1,1,,,,,,,,,,,,,,,,,,19,0,19,0,1,,,,,,,,,,,,,,,,,,,,,,,,,,,,,,,,,,,,,,,,,,,,,,,,,,,,,,,,,,,,
,,,,,,,,,,,,,,,,,,,,1,1,2021-01-05_00h41.05.539,CL_C2S3,2020.1.3,Win32,60,,,,,,,,,,,,,,,,,,,,,,,,,,,,,,,,,,,,,,,,,u,1,1.36725,0,0,0,0,1,,,,,,,,,,,,,,,,,,,,,,,,,,,,,,,,,,,,,,,,,,,,,,,,,,,,,,,,,,,,,,,,,
,,,,,,,,,,,,,,,,,,,,1,1,2021-01-05_00h41.05.539,CL_C2S3,2020.1.3,Win32,60,,,,,,,,,,,,,1,0,"[99,99,99]",1,1,Hand,u,TR,0,0,21,1,2,0.307369811,99,u,1.36725,1,1,,,,,,,,,,,,,,,,,,20,0,20,0,1,,,,,,,,,,,,,,,,,,,,,,,,,,,,,,,,,,,,,,,,,,,,,,,,,,,,,,,,,,,,
,,,,,,,,,,,,,,,,,,,,1,1,2021-01-05_00h41.05.539,CL_C2S3,2020.1.3,Win32,60,,,,,,,,,,,,,,,,,,,,,,,,,,,,,,,,,,,,,,,,,i,0,1.350015,0,0,0,0,1,,,,,,,,,,,,,,,,,,,,,,,,,,,,,,,,,,,,,,,,,,,,,,,,,,,,,,,,,,,,,,,,,
,,,,,,,,,,,,,,,,,,,,1,1,2021-01-05_00h41.05.539,CL_C2S3,2020.1.3,Win32,60,,,,,,,,,,,,,0,0,"[99,99,99]",0,0,Hand,h,TR,0,0,22,1,2,0.088213748,99,i,1.350015,0,1,,,,,,,,,,,,,,,,,,21,0,21,0,1,,,,,,,,,,,,,,,,,,,,,,,,,,,,,,,,,,,,,,,,,,,,,,,,,,,,,,,,,,,,
,,,,,,,,,,,,,,,,,,,,1,1,2021-01-05_00h41.05.539,CL_C2S3,2020.1.3,Win32,60,,,,,,,,,,,,,,,,,,,,,,,,,,,,,,,,,,,,,,,,,u,1,1.284215,0,0,0,0,1,,,,,,,,,,,,,,,,,,,,,,,,,,,,,,,,,,,,,,,,,,,,,,,,,,,,,,,,,,,,,,,,,
,,,,,,,,,,,,,,,,,,,,1,1,2021-01-05_00h41.05.539,CL_C2S3,2020.1.3,Win32,60,,,,,,,,,,,,,1,0,"[99,99,99]",1,1,Hand,u,TR,0,0,23,1,2,0.265042543,99,u,1.284215,1,1,,,,,,,,,,,,,,,,,,22,0,22,0,1,,,,,,,,,,,,,,,,,,,,,,,,,,,,,,,,,,,,,,,,,,,,,,,,,,,,,,,,,,,,
,,,,,,,,,,,,,,,,,,,,1,1,2021-01-05_00h41.05.539,CL_C2S3,2020.1.3,Win32,60,,,,,,,,,,,,,,,,,,,,,,,,,,,,,,,,,,,,,,,,,u,1,1.30024,0,0,0,0,1,,,,,,,,,,,,,,,,,,,,,,,,,,,,,,,,,,,,,,,,,,,,,,,,,,,,,,,,,,,,,,,,,
,,,,,,,,,,,,,,,,,,,,1,1,2021-01-05_00h41.05.539,CL_C2S3,2020.1.3,Win32,60,,,,,,,,,,,,,1,0,"[99,99,99]",1,1,Hand,u,TR,0,0,24,1,2,1.037071867,99,u,1.30024,1,1,,,,,,,,,,,,,,,,,,23,0,23,0,1,,,,,,,,,,,,,,,,,,,,,,,,,,,,,,,,,,,,,,,,,,,,,,,,,,,,,,,,,,,,
,,,,,,,,,,,,,,,,,,,,1,1,2021-01-05_00h41.05.539,CL_C2S3,2020.1.3,Win32,60,,,,,,,,,,,,,,,,,,,,,,,,,,,,,,,,,,,,,,,,,i,1,1.30091,0,0,0,0,1,,,,,,,,,,,,,,,,,,,,,,,,,,,,,,,,,,,,,,,,,,,,,,,,,,,,,,,,,,,,,,,,,
,,,,,,,,,,,,,,,,,,,,1,1,2021-01-05_00h41.05.539,CL_C2S3,2020.1.3,Win32,60,,,,,,,,,,,,,2,0,"[99,99,99]",2,0,Hand,i,TR,0,0,25,1,2,0.598314408,99,i,1.30091,1,1,,,,,,,,,,,,,,,,,,24,0,24,0,1,,,,,,,,,,,,,,,,,,,,,,,,,,,,,,,,,,,,,,,,,,,,,,,,,,,,,,,,,,,,
,,,,,,,,,,,,,,,,,,,,1,1,2021-01-05_00h41.05.539,CL_C2S3,2020.1.3,Win32,60,,,,,,,,,,,,,,,,,,,,,,,,,,,,,,,,,,,,,,,,,h,1,1.350645,0,0,0,0,1,,,,,,,,,,,,,,,,,,,,,,,,,,,,,,,,,,,,,,,,,,,,,,,,,,,,,,,,,,,,,,,,,
,,,,,,,,,,,,,,,,,,,,1,1,2021-01-05_00h41.05.539,CL_C2S3,2020.1.3,Win32,60,,,,,,,,,,,,,0,0,"[99,99,99]",0,0,Hand,h,TR,0,0,26,1,2,0.925385536,99,h,1.350645,1,1,,,,,,,,,,,,,,,,,,25,0,25,0,1,,,,,,,,,,,,,,,,,,,,,,,,,,,,,,,,,,,,,,,,,,,,,,,,,,,,,,,,,,,,
,,,,,,,,,,,,,,,,,,,,1,1,2021-01-05_00h41.05.539,CL_C2S3,2020.1.3,Win32,60,,,,,,,,,,,,,,,,,,,,,,,,,,,,,,,,,,,,,,,,,i,1,1.300565,0,0,0,0,1,,,,,,,,,,,,,,,,,,,,,,,,,,,,,,,,,,,,,,,,,,,,,,,,,,,,,,,,,,,,,,,,,
,,,,,,,,,,,,,,,,,,,,1,1,2021-01-05_00h41.05.539,CL_C2S3,2020.1.3,Win32,60,,,,,,,,,,,,,2,0,"[99,99,99]",2,0,Hand,i,TR,0,0,27,1,2,0.387959514,99,i,1.300565,1,1,,,,,,,,,,,,,,,,,,26,0,26,0,1,,,,,,,,,,,,,,,,,,,,,,,,,,,,,,,,,,,,,,,,,,,,,,,,,,,,,,,,,,,,
,,,,,,,,,,,,,,,,,,,,1,1,2021-01-05_00h41.05.539,CL_C2S3,2020.1.3,Win32,60,,,,,,,,,,,,,,,,,,,,,,,,,,,,,,,,,,,,,,,,,h,0,1.2943,0,0,0,0,1,,,,,,,,,,,,,,,,,,,,,,,,,,,,,,,,,,,,,,,,,,,,,,,,,,,,,,,,,,,,,,,,,
,,,,,,,,,,,,,,,,,,,,1,1,2021-01-05_00h41.05.539,CL_C2S3,2020.1.3,Win32,60,,,,,,,,,,,,,1,0,"[99,99,99]",1,1,Hand,u,TR,0,0,28,1,2,0.214827659,99,h,1.2943,0,1,,,,,,,,,,,,,,,,,,27,0,27,0,1,,,,,,,,,,,,,,,,,,,,,,,,,,,,,,,,,,,,,,,,,,,,,,,,,,,,,,,,,,,,
,,,,,,,,,,,,,,,,,,,,1,1,2021-01-05_00h41.05.539,CL_C2S3,2020.1.3,Win32,60,,,,,,,,,,,,,,,,,,,,,,,,,,,,,,,,,,,,,,,,,i,1,1.33536,0,0,0,0,1,,,,,,,,,,,,,,,,,,,,,,,,,,,,,,,,,,,,,,,,,,,,,,,,,,,,,,,,,,,,,,,,,
,,,,,,,,,,,,,,,,,,,,1,1,2021-01-05_00h41.05.539,CL_C2S3,2020.1.3,Win32,60,,,,,,,,,,,,,2,0,"[99,99,99]",2,0,Hand,i,TR,0,0,29,1,2,0.335403782,99,i,1.33536,1,1,,,,,,,,,,,,,,,,,,28,0,28,0,1,,,,,,,,,,,,,,,,,,,,,,,,,,,,,,,,,,,,,,,,,,,,,,,,,,,,,,,,,,,,
,,,,,,,,,,,,,,,,,,,,1,1,2021-01-05_00h41.05.539,CL_C2S3,2020.1.3,Win32,60,,,,,,,,,,,,,,,,,,,,,,,,,,,,,,,,,,,,,,,,,u,0,1.318515,0,0,0,0,1,,,,,,,,,,,,,,,,,,,,,,,,,,,,,,,,,,,,,,,,,,,,,,,,,,,,,,,,,,,,,,,,,
,,,,,,,,,,,,,,,,,,,,1,1,2021-01-05_00h41.05.539,CL_C2S3,2020.1.3,Win32,60,,,,,,,,,,,,,0,0,"[99,99,99]",0,0,Hand,h,TR,0,0,30,1,2,0.071612744,99,u,1.318515,0,1,,,,,,,,,,,,,,,,,,29,0,29,0,1,,,,,,,,,,,,,,,,,,,,,,,,,,,,,,,,,,,,,,,,,,,,,,,,,,,,,,,,,,,,
,,,,,,,,,,,,,,,,,,,,1,1,2021-01-05_00h41.05.539,CL_C2S3,2020.1.3,Win32,60,,,,,,,,,,,,,,,,,,,,,,,,,,,,,,,,,,,,,,,,,h,0,1.267125,0,0,0,0,1,,,,,,,,,,,,,,,,,,,,,,,,,,,,,,,,,,,,,,,,,,,,,,,,,,,,,,,,,,,,,,,,,
,,,,,,,,,,,,,,,,,,,,1,1,2021-01-05_00h41.05.539,CL_C2S3,2020.1.3,Win32,60,,,,,,,,,,,,,2,0,"[99,99,99]",2,0,Hand,i,TR,0,0,31,1,2,0.04659692,99,h,1.267125,0,1,,,,,,,,,,,,,,,,,,30,0,30,0,1,,,,,,,,,,,,,,,,,,,,,,,,,,,,,,,,,,,,,,,,,,,,,,,,,,,,,,,,,,,,
,,,,,,,,,,,,,,,,,,,,1,1,2021-01-05_00h41.05.539,CL_C2S3,2020.1.3,Win32,60,,,,,,,,,,,,,,,,,,,,,,,,,,,,,,,,,,,,,,,,,u,1,1.28426,0,0,0,0,1,,,,,,,,,,,,,,,,,,,,,,,,,,,,,,,,,,,,,,,,,,,,,,,,,,,,,,,,,,,,,,,,,
,,,,,,,,,,,,,,,,,,,,1,1,2021-01-05_00h41.05.539,CL_C2S3,2020.1.3,Win32,60,,,,,,,,,,,,,1,0,"[99,99,99]",1,1,Hand,u,TR,0,0,32,1,2,0.132687995,99,u,1.28426,1,1,,,,,,,,,,,,,,,,,,31,0,31,0,1,,,,,,,,,,,,,,,,,,,,,,,,,,,,,,,,,,,,,,,,,,,,,,,,,,,,,,,,,,,,
,,,,,,,,,,,,,,,,,,,,1,1,2021-01-05_00h41.05.539,CL_C2S3,2020.1.3,Win32,60,,,,,,,,,,,,,,,,,,,,,,,,,,,,,,,,,,,,,,,,,h,1,1.300095,0,0,0,0,1,,,,,,,,,,,,,,,,,,,,,,,,,,,,,,,,,,,,,,,,,,,,,,,,,,,,,,,,,,,,,,,,,
,,,,,,,,,,,,,,,,,,,,1,1,2021-01-05_00h41.05.539,CL_C2S3,2020.1.3,Win32,60,,,,,,,,,,,,,0,0,"[99,99,99]",0,0,Hand,h,TR,0,0,33,1,2,0.623514626,99,h,1.300095,1,1,,,,,,,,,,,,,,,,,,32,0,32,0,1,,,,,,,,,,,,,,,,,,,,,,,,,,,,,,,,,,,,,,,,,,,,,,,,,,,,,,,,,,,,
,,,,,,,,,,,,,,,,,,,,1,1,2021-01-05_00h41.05.539,CL_C2S3,2020.1.3,Win32,60,,,,,,,,,,,,,,,,,,,,,,,,,,,,,,,,,,,,,,,,,i,0,1.350725,0,0,0,0,1,,,,,,,,,,,,,,,,,,,,,,,,,,,,,,,,,,,,,,,,,,,,,,,,,,,,,,,,,,,,,,,,,
,,,,,,,,,,,,,,,,,,,,1,1,2021-01-05_00h41.05.539,CL_C2S3,2020.1.3,Win32,60,,,,,,,,,,,,,0,0,"[99,99,99]",0,0,Hand,h,TR,0,0,34,1,2,0.015030216,99,i,1.350725,0,1,,,,,,,,,,,,,,,,,,33,0,33,0,1,,,,,,,,,,,,,,,,,,,,,,,,,,,,,,,,,,,,,,,,,,,,,,,,,,,,,,,,,,,,
,,,,,,,,,,,,,,,,,,,,1,1,2021-01-05_00h41.05.539,CL_C2S3,2020.1.3,Win32,60,,,,,,,,,,,,,,,,,,,,,,,,,,,,,,,,,,,,,,,,,u,1,1.35091,0,0,0,0,1,,,,,,,,,,,,,,,,,,,,,,,,,,,,,,,,,,,,,,,,,,,,,,,,,,,,,,,,,,,,,,,,,
,,,,,,,,,,,,,,,,,,,,1,1,2021-01-05_00h41.05.539,CL_C2S3,2020.1.3,Win32,60,,,,,,,,,,,,,1,0,"[99,99,99]",1,1,Hand,u,TR,0,0,35,1,2,0.90570483,99,u,1.35091,1,1,,,,,,,,,,,,,,,,,,34,0,34,0,1,,,,,,,,,,,,,,,,,,,,,,,,,,,,,,,,,,,,,,,,,,,,,,,,,,,,,,,,,,,,
,,,,,,,,,,,,,,,,,,,,1,1,2021-01-05_00h41.05.539,CL_C2S3,2020.1.3,Win32,60,,,,,,,,,,,,,,,,,,,,,,,,,,,,,,,,,,,,,,,,,i,1,1.36747,0,0,0,0,1,,,,,,,,,,,,,,,,,,,,,,,,,,,,,,,,,,,,,,,,,,,,,,,,,,,,,,,,,,,,,,,,,
,,,,,,,,,,,,,,,,,,,,1,1,2021-01-05_00h41.05.539,CL_C2S3,2020.1.3,Win32,60,,,,,,,,,,,,,2,0,"[99,99,99]",2,0,Hand,i,TR,0,0,36,1,2,0.641653193,99,i,1.36747,1,1,,,,,,,,,,,,,,,,,,35,0,35,0,1,,,,,,,,,,,,,,,,,,,,,,,,,,,,,,,,,,,,,,,,,,,,,,,,,,,,,,,,,,,,
,,,,,,,,,,,,,,,,,,,,1,1,2021-01-05_00h41.05.539,CL_C2S3,2020.1.3,Win32,60,,,,,,,,,,,,,,,,,,,,,,,,,,,,,,,,,,,,,,,,,h,1,1.367645,0,0,0,0,1,,,,,,,,,,,,,,,,,,,,,,,,,,,,,,,,,,,,,,,,,,,,,,,,,,,,,,,,,,,,,,,,,
,,,,,,,,,,,,,,,,,,,,1,1,2021-01-05_00h41.05.539,CL_C2S3,2020.1.3,Win32,60,,,,,,,,,,,,,0,0,"[99,99,99]",0,0,Hand,h,TR,0,0,37,1,2,0.066060771,99,h,1.367645,1,1,,,,,,,,,,,,,,,,,,36,0,36,0,1,,,,,,,,,,,,,,,,,,,,,,,,,,,,,,,,,,,,,,,,,,,,,,,,,,,,,,,,,,,,
,,,,,,,,,,,,,,,,,,,,1,1,2021-01-05_00h41.05.539,CL_C2S3,2020.1.3,Win32,60,,,,,,,,,,,,,,,,,,,,,,,,,,,,,,,,,,,,,,,,,u,1,1.36778,0,0,0,0,1,,,,,,,,,,,,,,,,,,,,,,,,,,,,,,,,,,,,,,,,,,,,,,,,,,,,,,,,,,,,,,,,,
,,,,,,,,,,,,,,,,,,,,1,1,2021-01-05_00h41.05.539,CL_C2S3,2020.1.3,Win32,60,,,,,,,,,,,,,1,0,"[99,99,99]",1,1,Hand,u,TR,0,0,38,1,2,0.851303005,99,u,1.36778,1,1,,,,,,,,,,,,,,,,,,37,0,37,0,1,,,,,,,,,,,,,,,,,,,,,,,,,,,,,,,,,,,,,,,,,,,,,,,,,,,,,,,,,,,,
,,,,,,,,,,,,,,,,,,,,1,1,2021-01-05_00h41.05.539,CL_C2S3,2020.1.3,Win32,60,,,,,,,,,,,,,,,,,,,,,,,,,,,,,,,,,,,,,,,,,h,1,1.3841,0,0,0,0,1,,,,,,,,,,,,,,,,,,,,,,,,,,,,,,,,,,,,,,,,,,,,,,,,,,,,,,,,,,,,,,,,,
,,,,,,,,,,,,,,,,,,,,1,1,2021-01-05_00h41.05.539,CL_C2S3,2020.1.3,Win32,60,,,,,,,,,,,,,0,0,"[99,99,99]",0,0,Hand,h,TR,0,0,39,1,2,0.360517791,99,h,1.3841,1,1,,,,,,,,,,,,,,,,,,38,0,38,0,1,,,,,,,,,,,,,,,,,,,,,,,,,,,,,,,,,,,,,,,,,,,,,,,,,,,,,,,,,,,,
,,,,,,,,,,,,,,,,,,,,1,1,2021-01-05_00h41.05.539,CL_C2S3,2020.1.3,Win32,60,,,,,,,,,,,,,,,,,,,,,,,,,,,,,,,,,,,,,,,,,i,1,1.33208,0,0,0,0,1,,,,,,,,,,,,,,,,,,,,,,,,,,,,,,,,,,,,,,,,,,,,,,,,,,,,,,,,,,,,,,,,,
,,,,,,,,,,,,,,,,,,,,1,1,2021-01-05_00h41.05.539,CL_C2S3,2020.1.3,Win32,60,,,,,,,,,,,,,2,0,"[99,99,99]",2,0,Hand,i,TR,0,0,40,1,2,0.570536434,99,i,1.33208,1,1,,,,,,,,,,,,,,,,,,39,0,39,0,1,,,,,,,,,,,,,,,,,,,,,,,,,,,,,,,,,,,,,,,,,,,,,,,,,,,,,,,,,,,,
,,,,,,,,,,,,,,,,,,,,1,1,2021-01-05_00h41.05.539,CL_C2S3,2020.1.3,Win32,60,,,,,,,,,,,,,,,,,,,,,,,,,,,,,,,,,,,,,,,,,i,1,1.25082,0,0,0,0,1,,,,,,,,,,,,,,,,,,,,,,,,,,,,,,,,,,,,,,,,,,,,,,,,,,,,,,,,,,,,,,,,,
,,,,,,,,,,,,,,,,,,,,1,1,2021-01-05_00h41.05.539,CL_C2S3,2020.1.3,Win32,60,,,,,,,,,,,,,2,0,"[99,99,99]",2,0,Hand,i,TR,0,0,41,1,2,1.05789718,99,i,1.25082,1,1,,,,,,,,,,,,,,,,,,40,0,40,0,1,,,,,,,,,,,,,,,,,,,,,,,,,,,,,,,,,,,,,,,,,,,,,,,,,,,,,,,,,,,,
,,,,,,,,,,,,,,,,,,,,1,1,2021-01-05_00h41.05.539,CL_C2S3,2020.1.3,Win32,60,,,,,,,,,,,,,,,,,,,,,,,,,,,,,,,,,,,,,,,,,u,1,1.250565,0,0,0,0,1,,,,,,,,,,,,,,,,,,,,,,,,,,,,,,,,,,,,,,,,,,,,,,,,,,,,,,,,,,,,,,,,,
,,,,,,,,,,,,,,,,,,,,1,1,2021-01-05_00h41.05.539,CL_C2S3,2020.1.3,Win32,60,,,,,,,,,,,,,1,0,"[99,99,99]",1,1,Hand,u,TR,0,0,42,1,2,1.007337065,99,u,1.250565,1,1,,,,,,,,,,,,,,,,,,41,0,41,0,1,,,,,,,,,,,,,,,,,,,,,,,,,,,,,,,,,,,,,,,,,,,,,,,,,,,,,,,,,,,,
,,,,,,,,,,,,,,,,,,,,1,1,2021-01-05_00h41.05.539,CL_C2S3,2020.1.3,Win32,60,,,,,,,,,,,,,,,,,,,,,,,,,,,,,,,,,,,,,,,,,h,1,1.284005,0,0,0,0,1,,,,,,,,,,,,,,,,,,,,,,,,,,,,,,,,,,,,,,,,,,,,,,,,,,,,,,,,,,,,,,,,,
,,,,,,,,,,,,,,,,,,,,1,1,2021-01-05_00h41.05.539,CL_C2S3,2020.1.3,Win32,60,,,,,,,,,,,,,0,0,"[99,99,99]",0,0,Hand,h,TR,0,0,43,1,2,0.210080786,99,h,1.284005,1,1,,,,,,,,,,,,,,,,,,42,0,42,0,1,,,,,,,,,,,,,,,,,,,,,,,,,,,,,,,,,,,,,,,,,,,,,,,,,,,,,,,,,,,,
,,,,,,,,,,,,,,,,,,,,1,1,2021-01-05_00h41.05.539,CL_C2S3,2020.1.3,Win32,60,,,,,,,,,,,,,,,,,,,,,,,,,,,,,,,,,,,,,,,,,i,1,1.267525,0,0,0,0,1,,,,,,,,,,,,,,,,,,,,,,,,,,,,,,,,,,,,,,,,,,,,,,,,,,,,,,,,,,,,,,,,,
,,,,,,,,,,,,,,,,,,,,1,1,2021-01-05_00h41.05.539,CL_C2S3,2020.1.3,Win32,60,,,,,,,,,,,,,2,0,"[99,99,99]",2,0,Hand,i,TR,0,0,44,1,2,0.259412975,99,i,1.267525,1,1,,,,,,,,,,,,,,,,,,43,0,43,0,1,,,,,,,,,,,,,,,,,,,,,,,,,,,,,,,,,,,,,,,,,,,,,,,,,,,,,,,,,,,,
,,,,,,,,,,,,,,,,,,,,1,1,2021-01-05_00h41.05.539,CL_C2S3,2020.1.3,Win32,60,,,,,,,,,,,,,,,,,,,,,,,,,,,,,,,,,,,,,,,,,u,1,1.28364,0,0,0,0,1,,,,,,,,,,,,,,,,,,,,,,,,,,,,,,,,,,,,,,,,,,,,,,,,,,,,,,,,,,,,,,,,,
,,,,,,,,,,,,,,,,,,,,1,1,2021-01-05_00h41.05.539,CL_C2S3,2020.1.3,Win32,60,,,,,,,,,,,,,1,0,"[99,99,99]",1,1,Hand,u,TR,0,0,45,1,2,1.032281027,99,u,1.28364,1,1,,,,,,,,,,,,,,,,,,44,0,44,0,1,,,,,,,,,,,,,,,,,,,,,,,,,,,,,,,,,,,,,,,,,,,,,,,,,,,,,,,,,,,,
,,,,,,,,,,,,,,,,,,,,1,1,2021-01-05_00h41.05.539,CL_C2S3,2020.1.3,Win32,60,,,,,,,,,,,,,,,,,,,,,,,,,,,,,,,,,,,,,,,,,h,1,1.26835,0,0,0,0,1,,,,,,,,,,,,,,,,,,,,,,,,,,,,,,,,,,,,,,,,,,,,,,,,,,,,,,,,,,,,,,,,,
,,,,,,,,,,,,,,,,,,,,1,1,2021-01-05_00h41.05.539,CL_C2S3,2020.1.3,Win32,60,,,,,,,,,,,,,0,0,"[99,99,99]",0,0,Hand,h,TR,0,0,46,1,2,0.214412191,99,h,1.26835,1,1,,,,,,,,,,,,,,,,,,45,0,45,0,1,,,,,,,,,,,,,,,,,,,,,,,,,,,,,,,,,,,,,,,,,,,,,,,,,,,,,,,,,,,,
,,,,,,,,,,,,,,,,,,,,1,1,2021-01-05_00h41.05.539,CL_C2S3,2020.1.3,Win32,60,,,,,,,,,,,,,,,,,,,,,,,,,,,,,,,,,,,,,,,,,u,0,1.38343,0,0,0,0,1,,,,,,,,,,,,,,,,,,,,,,,,,,,,,,,,,,,,,,,,,,,,,,,,,,,,,,,,,,,,,,,,,
,,,,,,,,,,,,,,,,,,,,1,1,2021-01-05_00h41.05.539,CL_C2S3,2020.1.3,Win32,60,,,,,,,,,,,,,2,0,"[99,99,99]",2,0,Hand,i,TR,0,0,47,1,2,0.070770122,99,u,1.38343,0,1,,,,,,,,,,,,,,,,,,46,0,46,0,1,,,,,,,,,,,,,,,,,,,,,,,,,,,,,,,,,,,,,,,,,,,,,,,,,,,,,,,,,,,,
,,,,,,,,,,,,,,,,,,,,1,1,2021-01-05_00h41.05.539,CL_C2S3,2020.1.3,Win32,60,,,,,,,,,,,,,,,,,,,,,,,,,,,,,,,,,,,,,,,,,u,1,1.29459,0,0,0,0,1,,,,,,,,,,,,,,,,,,,,,,,,,,,,,,,,,,,,,,,,,,,,,,,,,,,,,,,,,,,,,,,,,
,,,,,,,,,,,,,,,,,,,,1,1,2021-01-05_00h41.05.539,CL_C2S3,2020.1.3,Win32,60,,,,,,,,,,,,,1,0,"[99,99,99]",1,1,Hand,u,TR,0,0,48,1,2,0.969276404,99,u,1.29459,1,1,,,,,,,,,,,,,,,,,,47,0,47,0,1,,,,,,,,,,,,,,,,,,,,,,,,,,,,,,,,,,,,,,,,,,,,,,,,,,,,,,,,,,,,
,,,,,,,,,,,,,,,,,,,,1,1,2021-01-05_00h41.05.539,CL_C2S3,2020.1.3,Win32,60,,,,,,,,,,,,,,,,,,,,,,,,,,,,,,,,,,,,,,,,,i,0,1.183965,0,0,0,0,1,,,,,,,,,,,,,,,,,,,,,,,,,,,,,,,,,,,,,,,,,,,,,,,,,,,,,,,,,,,,,,,,,
,,,,,,,,,,,,,,,,,,,,1,1,2021-01-05_00h41.05.539,CL_C2S3,2020.1.3,Win32,60,,,,,,,,,,,,,0,0,"[99,99,99]",0,0,Hand,h,TR,0,0,49,1,2,-0.053571615,99,i,1.183965,0,1,,,,,,,,,,,,,,,,,,48,0,48,0,1,,,,,,,,,,,,,,,,,,,,,,,,,,,,,,,,,,,,,,,,,,,,,,,,,,,,,,,,,,,,
,,,,,,,,,,,,,,,,,,,,1,1,2021-01-05_00h41.05.539,CL_C2S3,2020.1.3,Win32,60,,,,,,,,,,,,,,,,,,,,,,,,,,,,,,,,,,,,,,,,,i,1,1.3344,0,0,0,0,1,,,,,,,,,,,,,,,,,,,,,,,,,,,,,,,,,,,,,,,,,,,,,,,,,,,,,,,,,,,,,,,,,
,,,,,,,,,,,,,,,,,,,,1,1,2021-01-05_00h41.05.539,CL_C2S3,2020.1.3,Win32,60,,,,,,,,,,,,,2,0,"[99,99,99]",2,0,Hand,i,TR,0,0,50,1,2,0.678739273,99,i,1.3344,1,1,,,,,,,,,,,,,,,,,,49,0,49,0,1,,,,,,,,,,,,,,,,,,,,,,,,,,,,,,,,,,,,,,,,,,,,,,,,,,,,,,,,,,,,
,,,,,,,,,,,,,,,,,,,,1,1,2021-01-05_00h41.05.539,CL_C2S3,2020.1.3,Win32,60,,,,,,,,,,,,,,,,,,,,,,,,,,,,,,,,,,,,,,,,,u,1,1.23434,0,0,0,0,1,,,,,,,,,,,,,,,,,,,,,,,,,,,,,,,,,,,,,,,,,,,,,,,,,,,,,,,,,,,,,,,,,
,,,,,,,,,,,,,,,,,,,,1,1,2021-01-05_00h41.05.539,CL_C2S3,2020.1.3,Win32,60,,,,,,,,,,,,,1,0,"[99,99,99]",1,1,Hand,u,TR,0,0,51,1,2,0.199971289,99,u,1.23434,1,1,,,,,,,,,,,,,,,,,,50,0,50,0,1,,,,,,,,,,,,,,,,,,,,,,,,,,,,,,,,,,,,,,,,,,,,,,,,,,,,,,,,,,,,
,,,,,,,,,,,,,,,,,,,,1,1,2021-01-05_00h41.05.539,CL_C2S3,2020.1.3,Win32,60,,,,,,,,,,,,,,,,,,,,,,,,,,,,,,,,,,,,,,,,,h,1,1.28364,0,0,0,0,1,,,,,,,,,,,,,,,,,,,,,,,,,,,,,,,,,,,,,,,,,,,,,,,,,,,,,,,,,,,,,,,,,
,,,,,,,,,,,,,,,,,,,,1,1,2021-01-05_00h41.05.539,CL_C2S3,2020.1.3,Win32,60,,,,,,,,,,,,,0,0,"[99,99,99]",0,0,Hand,h,TR,0,0,52,1,2,0.516127653,99,h,1.28364,1,1,,,,,,,,,,,,,,,,,,51,0,51,0,1,,,,,,,,,,,,,,,,,,,,,,,,,,,,,,,,,,,,,,,,,,,,,,,,,,,,,,,,,,,,
,,,,,,,,,,,,,,,,,,,,1,1,2021-01-05_00h41.05.539,CL_C2S3,2020.1.3,Win32,60,,,,,,,,,,,,,,,,,,,,,,,,,,,,,,,,,,,,,,,,,u,1,1.117775,0,0,0,0,1,,,,,,,,,,,,,,,,,,,,,,,,,,,,,,,,,,,,,,,,,,,,,,,,,,,,,,,,,,,,,,,,,
,,,,,,,,,,,,,,,,,,,,1,1,2021-01-05_00h41.05.539,CL_C2S3,2020.1.3,Win32,60,,,,,,,,,,,,,1,0,"[99,99,99]",1,1,Hand,u,TR,0,0,53,1,2,0.596382736,99,u,1.117775,1,1,,,,,,,,,,,,,,,,,,52,0,52,0,1,,,,,,,,,,,,,,,,,,,,,,,,,,,,,,,,,,,,,,,,,,,,,,,,,,,,,,,,,,,,
,,,,,,,,,,,,,,,,,,,,1,1,2021-01-05_00h41.05.539,CL_C2S3,2020.1.3,Win32,60,,,,,,,,,,,,,,,,,,,,,,,,,,,,,,,,,,,,,,,,,i,1,1.25095,0,0,0,0,1,,,,,,,,,,,,,,,,,,,,,,,,,,,,,,,,,,,,,,,,,,,,,,,,,,,,,,,,,,,,,,,,,
,,,,,,,,,,,,,,,,,,,,1,1,2021-01-05_00h41.05.539,CL_C2S3,2020.1.3,Win32,60,,,,,,,,,,,,,2,0,"[99,99,99]",2,0,Hand,i,TR,0,0,54,1,2,0.337203533,99,i,1.25095,1,1,,,,,,,,,,,,,,,,,,53,0,53,0,1,,,,,,,,,,,,,,,,,,,,,,,,,,,,,,,,,,,,,,,,,,,,,,,,,,,,,,,,,,,,
,,,,,,,,,,,,,,,,,,,,1,1,2021-01-05_00h41.05.539,CL_C2S3,2020.1.3,Win32,60,,,,,,,,,,,,,,,,,,,,,,,,,,,,,,,,,,,,,,,,,h,0,1.28419,0,0,0,0,1,,,,,,,,,,,,,,,,,,,,,,,,,,,,,,,,,,,,,,,,,,,,,,,,,,,,,,,,,,,,,,,,,
,,,,,,,,,,,,,,,,,,,,1,1,2021-01-05_00h41.05.539,CL_C2S3,2020.1.3,Win32,60,,,,,,,,,,,,,1,0,"[99,99,99]",1,1,Hand,u,TR,0,0,55,1,2,0.322945693,99,h,1.28419,0,1,,,,,,,,,,,,,,,,,,54,0,54,0,1,,,,,,,,,,,,,,,,,,,,,,,,,,,,,,,,,,,,,,,,,,,,,,,,,,,,,,,,,,,,
,,,,,,,,,,,,,,,,,,,,1,1,2021-01-05_00h41.05.539,CL_C2S3,2020.1.3,Win32,60,,,,,,,,,,,,,,,,,,,,,,,,,,,,,,,,,,,,,,,,,h,0,1.249285,0,0,0,0,1,,,,,,,,,,,,,,,,,,,,,,,,,,,,,,,,,,,,,,,,,,,,,,,,,,,,,,,,,,,,,,,,,
,,,,,,,,,,,,,,,,,,,,1,1,2021-01-05_00h41.05.539,CL_C2S3,2020.1.3,Win32,60,,,,,,,,,,,,,2,0,"[99,99,99]",2,0,Hand,i,TR,0,0,56,1,2,0.331780186,99,h,1.249285,0,1,,,,,,,,,,,,,,,,,,55,0,55,0,1,,,,,,,,,,,,,,,,,,,,,,,,,,,,,,,,,,,,,,,,,,,,,,,,,,,,,,,,,,,,
,,,,,,,,,,,,,,,,,,,,1,1,2021-01-05_00h41.05.539,CL_C2S3,2020.1.3,Win32,60,,,,,,,,,,,,,,,,,,,,,,,,,,,,,,,,,,,,,,,,,h,1,1.31756,0,0,0,0,1,,,,,,,,,,,,,,,,,,,,,,,,,,,,,,,,,,,,,,,,,,,,,,,,,,,,,,,,,,,,,,,,,
,,,,,,,,,,,,,,,,,,,,1,1,2021-01-05_00h41.05.539,CL_C2S3,2020.1.3,Win32,60,,,,,,,,,,,,,0,0,"[99,99,99]",0,0,Hand,h,TR,0,0,57,1,2,0.391968409,99,h,1.31756,1,1,,,,,,,,,,,,,,,,,,56,0,56,0,1,,,,,,,,,,,,,,,,,,,,,,,,,,,,,,,,,,,,,,,,,,,,,,,,,,,,,,,,,,,,
,,,,,,,,,,,,,,,,,,,,1,1,2021-01-05_00h41.05.539,CL_C2S3,2020.1.3,Win32,60,,,,,,,,,,,,,,,,,,,,,,,,,,,,,,,,,,,,,,,,,i,0,1.282995,0,0,0,0,1,,,,,,,,,,,,,,,,,,,,,,,,,,,,,,,,,,,,,,,,,,,,,,,,,,,,,,,,,,,,,,,,,
,,,,,,,,,,,,,,,,,,,,1,1,2021-01-05_00h41.05.539,CL_C2S3,2020.1.3,Win32,60,,,,,,,,,,,,,0,0,"[99,99,99]",0,0,Hand,h,TR,0,0,58,1,2,0.274513798,99,i,1.282995,0,1,,,,,,,,,,,,,,,,,,57,0,57,0,1,,,,,,,,,,,,,,,,,,,,,,,,,,,,,,,,,,,,,,,,,,,,,,,,,,,,,,,,,,,,
,,,,,,,,,,,,,,,,,,,,1,1,2021-01-05_00h41.05.539,CL_C2S3,2020.1.3,Win32,60,,,,,,,,,,,,,,,,,,,,,,,,,,,,,,,,,,,,,,,,,u,1,1.334925,0,0,0,0,1,,,,,,,,,,,,,,,,,,,,,,,,,,,,,,,,,,,,,,,,,,,,,,,,,,,,,,,,,,,,,,,,,
,,,,,,,,,,,,,,,,,,,,1,1,2021-01-05_00h41.05.539,CL_C2S3,2020.1.3,Win32,60,,,,,,,,,,,,,1,0,"[99,99,99]",1,1,Hand,u,TR,0,0,59,1,2,1.138163899,99,u,1.334925,1,1,,,,,,,,,,,,,,,,,,58,0,58,0,1,,,,,,,,,,,,,,,,,,,,,,,,,,,,,,,,,,,,,,,,,,,,,,,,,,,,,,,,,,,,
,,,,,,,,,,,,,,,,,,,,1,1,2021-01-05_00h41.05.539,CL_C2S3,2020.1.3,Win32,60,,,,,,,,,,,,,,,,,,,,,,,,,,,,,,,,,,,,,,,,,u,0,1.26748,0,0,0,0,1,,,,,,,,,,,,,,,,,,,,,,,,,,,,,,,,,,,,,,,,,,,,,,,,,,,,,,,,,,,,,,,,,
,,,,,,,,,,,,,,,,,,,,1,1,2021-01-05_00h41.05.539,CL_C2S3,2020.1.3,Win32,60,,,,,,,,,,,,,2,0,"[99,99,99]",2,0,Hand,i,TR,0,0,60,1,2,-0.004577746,99,u,1.26748,0,1,,,,,,,,,,,,,,,,,,59,0,59,0,1,,,,,,,,,,,,,,,,,,,,,,,,,,,,,,,,,,,,,,,,,,,,,,,,,,,,,,,,,,,,
,,,,,,,,,,,,,,,,,,,,1,1,2021-01-05_00h41.05.539,CL_C2S3,2020.1.3,Win32,60,,,,,,,,,,,,,2,1,"[1,-1,-1]",2,0,Symb,i,CR,0,0,0,1,1,99,99,h,3.02271,0,1,,,,,,,,,,,,,,,,,,,,,,,,,,,,,,,,,,,h,16.76684,h,0,3.02271,media/dknb.png,0,0,0,0,1,,,,,,,,,,,,,,,,,,,,,,,,,,,,,,,,,,,,,
,,,,,,,,,,,,,,,,,,,,1,1,2021-01-05_00h41.05.539,CL_C2S3,2020.1.3,Win32,60,,,,,,,,,,,,,2,1,"[1,-1,-1]",2,0,Symb,i,CR,0,1,0,1,1,99,99,u,1.142125,0,1,,,,,,,,,,,,,,,,,,,,,,,,,,,,,,,,,,,,,u,0,1.142125,media/dknb.png,1,0,1,0,1,,,,,,,,,,,,,,,,,,,,,,,,,,,,,,,,,,,,,
,,,,,,,,,,,,,,,,,,,,1,1,2021-01-05_00h41.05.539,CL_C2S3,2020.1.3,Win32,60,,,,,,,,,,,,,2,1,"[1,-1,-1]",2,0,Symb,i,CR,0,2,0,1,1,99,99,i,0.4717,1,1,,,,,,,,,,,,,,,,,,,,,,,,,,,,,,,,,,,,,i,1,0.4717,media/dknb.png,2,0,2,0,1,,,,,,,,,,,,,,,,,,,,,,,,,,,,,,,,,,,,,
,,,,,,,,,,,,,,,,,,,,1,1,2021-01-05_00h41.05.539,CL_C2S3,2020.1.3,Win32,60,,,,,,,,,,,,,1,2,"[-1,1,-1]",4,1,Symb,i,CR,0,0,1,1,1,99,99,i,1.13592,1,1,,,,,,,,,,,,,,,,,,,,,,,,,,,,,,,,,,,,,i,1,1.13592,media/dfnb.png,3,0,3,0,1,,,,,,,,,,,,,,,,,,,,,,,,,,,,,,,,,,,,,
,,,,,,,,,,,,,,,,,,,,1,1,2021-01-05_00h41.05.539,CL_C2S3,2020.1.3,Win32,60,,,,,,,,,,,,,0,2,"[-1,1,-1]",3,0,Symb,h,CR,0,0,2,1,1,99,99,u,1.918075,0,1,,,,,,,,,,,,,,,,,,,,,,,,,,,,,,,,,,,,,u,0,1.918075,media/dcnb.png,4,0,4,0,1,,,,,,,,,,,,,,,,,,,,,,,,,,,,,,,,,,,,,
,,,,,,,,,,,,,,,,,,,,1,1,2021-01-05_00h41.05.539,CL_C2S3,2020.1.3,Win32,60,,,,,,,,,,,,,0,2,"[-1,1,-1]",3,0,Symb,h,CR,0,1,2,1,1,99,99,h,0.564405,1,1,,,,,,,,,,,,,,,,,,,,,,,,,,,,,,,,,,,,,h,1,0.564405,media/dcnb.png,5,0,5,0,1,,,,,,,,,,,,,,,,,,,,,,,,,,,,,,,,,,,,,
,,,,,,,,,,,,,,,,,,,,1,1,2021-01-05_00h41.05.539,CL_C2S3,2020.1.3,Win32,60,,,,,,,,,,,,,1,2,"[-1,1,-1]",4,1,Symb,i,CR,0,0,3,1,1,99,99,i,1.635795,1,1,,,,,,,,,,,,,,,,,,,,,,,,,,,,,,,,,,,,,i,1,1.635795,media/dfnb.png,6,0,6,0,1,,,,,,,,,,,,,,,,,,,,,,,,,,,,,,,,,,,,,
,,,,,,,,,,,,,,,,,,,,1,1,2021-01-05_00h41.05.539,CL_C2S3,2020.1.3,Win32,60,,,,,,,,,,,,,2,2,"[-1,1,-1]",5,0,Symb,u,CR,0,0,4,1,1,99,99,u,1.014015,1,1,,,,,,,,,,,,,,,,,,,,,,,,,,,,,,,,,,,,,u,1,1.014015,media/dknb.png,7,0,7,0,1,,,,,,,,,,,,,,,,,,,,,,,,,,,,,,,,,,,,,
,,,,,,,,,,,,,,,,,,,,1,1,2021-01-05_00h41.05.539,CL_C2S3,2020.1.3,Win32,60,,,,,,,,,,,,,0,2,"[-1,1,-1]",3,0,Symb,h,CR,0,0,5,1,1,99,99,h,1.412635,1,1,,,,,,,,,,,,,,,,,,,,,,,,,,,,,,,,,,,,,h,1,1.412635,media/dcnb.png,8,0,8,0,1,,,,,,,,,,,,,,,,,,,,,,,,,,,,,,,,,,,,,
,,,,,,,,,,,,,,,,,,,,1,1,2021-01-05_00h41.05.539,CL_C2S3,2020.1.3,Win32,60,,,,,,,,,,,,,0,1,"[1,-1,-1]",0,0,Symb,u,CR,0,0,6,1,1,99,99,u,1.295185,1,1,,,,,,,,,,,,,,,,,,,,,,,,,,,,,,,,,,,,,u,1,1.295185,media/dcnb.png,9,0,9,0,1,,,,,,,,,,,,,,,,,,,,,,,,,,,,,,,,,,,,,
,,,,,,,,,,,,,,,,,,,,1,1,2021-01-05_00h41.05.539,CL_C2S3,2020.1.3,Win32,60,,,,,,,,,,,,,2,1,"[1,-1,-1]",2,0,Symb,i,CR,0,0,7,1,1,99,99,i,1.14823,1,1,,,,,,,,,,,,,,,,,,,,,,,,,,,,,,,,,,,,,i,1,1.14823,media/dknb.png,10,0,10,0,1,,,,,,,,,,,,,,,,,,,,,,,,,,,,,,,,,,,,,
,,,,,,,,,,,,,,,,,,,,1,1,2021-01-05_00h41.05.539,CL_C2S3,2020.1.3,Win32,60,,,,,,,,,,,,,1,1,"[1,-1,-1]",1,1,Symb,h,CR,0,0,8,1,1,99,99,h,2.08092,1,1,,,,,,,,,,,,,,,,,,,,,,,,,,,,,,,,,,,,,h,1,2.08092,media/dfnb.png,11,0,11,0,1,,,,,,,,,,,,,,,,,,,,,,,,,,,,,,,,,,,,,
,,,,,,,,,,,,,,,,,,,,1,1,2021-01-05_00h41.05.539,CL_C2S3,2020.1.3,Win32,60,,,,,,,,,,,,,0,1,"[1,-1,-1]",0,0,Symb,u,CR,0,0,9,1,1,99,99,i,3.121455,0,1,,,,,,,,,,,,,,,,,,,,,,,,,,,,,,,,,,,,,i,0,3.121455,media/dcnb.png,12,0,12,0,1,,,,,,,,,,,,,,,,,,,,,,,,,,,,,,,,,,,,,
,,,,,,,,,,,,,,,,,,,,1,1,2021-01-05_00h41.05.539,CL_C2S3,2020.1.3,Win32,60,,,,,,,,,,,,,0,1,"[1,-1,-1]",0,0,Symb,u,CR,0,1,9,1,1,99,99,u,0.306625,1,1,,,,,,,,,,,,,,,,,,,,,,,,,,,,,,,,,,,,,u,1,0.306625,media/dcnb.png,13,0,13,0,1,,,,,,,,,,,,,,,,,,,,,,,,,,,,,,,,,,,,,
,,,,,,,,,,,,,,,,,,,,1,1,2021-01-05_00h41.05.539,CL_C2S3,2020.1.3,Win32,60,,,,,,,,,,,,,1,1,"[1,-1,-1]",1,1,Symb,h,CR,0,0,10,1,1,99,99,h,0.95734,1,1,,,,,,,,,,,,,,,,,,,,,,,,,,,,,,,,,,,,,h,1,0.95734,media/dfnb.png,14,0,14,0,1,,,,,,,,,,,,,,,,,,,,,,,,,,,,,,,,,,,,,
,,,,,,,,,,,,,,,,,,,,1,1,2021-01-05_00h41.05.539,CL_C2S3,2020.1.3,Win32,60,,,,,,,,,,,,,2,2,"[-1,1,-1]",5,0,Symb,u,CR,0,0,11,1,1,99,99,u,3.748855,1,1,,,,,,,,,,,,,,,,,,,,,,,,,,,,,,,,,,,,,u,1,3.748855,media/dknb.png,15,0,15,0,1,,,,,,,,,,,,,,,,,,,,,,,,,,,,,,,,,,,,,
,,,,,,,,,,,,,,,,,,,,1,1,2021-01-05_00h41.05.539,CL_C2S3,2020.1.3,Win32,60,,,,,,,,,,,,,0,1,"[1,-1,-1]",0,0,Symb,u,CR,0,0,12,1,1,99,99,u,1.642905,1,1,,,,,,,,,,,,,,,,,,,,,,,,,,,,,,,,,,,,,u,1,1.642905,media/dcnb.png,16,0,16,0,1,,,,,,,,,,,,,,,,,,,,,,,,,,,,,,,,,,,,,
,,,,,,,,,,,,,,,,,,,,1,1,2021-01-05_00h41.05.539,CL_C2S3,2020.1.3,Win32,60,,,,,,,,,,,,,2,1,"[1,-1,-1]",2,0,Symb,i,CR,0,0,13,1,1,99,99,i,0.89562,1,1,,,,,,,,,,,,,,,,,,,,,,,,,,,,,,,,,,,,,i,1,0.89562,media/dknb.png,17,0,17,0,1,,,,,,,,,,,,,,,,,,,,,,,,,,,,,,,,,,,,,
,,,,,,,,,,,,,,,,,,,,1,1,2021-01-05_00h41.05.539,CL_C2S3,2020.1.3,Win32,60,,,,,,,,,,,,,1,2,"[-1,1,-1]",4,1,Symb,i,CR,0,0,14,1,1,99,99,h,1.07167,0,1,,,,,,,,,,,,,,,,,,,,,,,,,,,,,,,,,,,,,h,0,1.07167,media/dfnb.png,18,0,18,0,1,,,,,,,,,,,,,,,,,,,,,,,,,,,,,,,,,,,,,
,,,,,,,,,,,,,,,,,,,,1,1,2021-01-05_00h41.05.539,CL_C2S3,2020.1.3,Win32,60,,,,,,,,,,,,,1,2,"[-1,1,-1]",4,1,Symb,i,CR,0,1,14,1,1,99,99,i,0.23499,1,1,,,,,,,,,,,,,,,,,,,,,,,,,,,,,,,,,,,,,i,1,0.23499,media/dfnb.png,19,0,19,0,1,,,,,,,,,,,,,,,,,,,,,,,,,,,,,,,,,,,,,
,,,,,,,,,,,,,,,,,,,,1,1,2021-01-05_00h41.05.539,CL_C2S3,2020.1.3,Win32,60,,,,,,,,,,,,,1,1,"[1,-1,-1]",1,1,Symb,h,CR,0,0,15,1,1,99,99,h,1.39627,1,1,,,,,,,,,,,,,,,,,,,,,,,,,,,,,,,,,,,,,h,1,1.39627,media/dfnb.png,20,0,20,0,1,,,,,,,,,,,,,,,,,,,,,,,,,,,,,,,,,,,,,
,,,,,,,,,,,,,,,,,,,,1,1,2021-01-05_00h41.05.539,CL_C2S3,2020.1.3,Win32,60,,,,,,,,,,,,,0,2,"[-1,1,-1]",3,0,Symb,h,CR,0,0,16,1,1,99,99,h,1.1449,1,1,,,,,,,,,,,,,,,,,,,,,,,,,,,,,,,,,,,,,h,1,1.1449,media/dcnb.png,21,0,21,0,1,,,,,,,,,,,,,,,,,,,,,,,,,,,,,,,,,,,,,
,,,,,,,,,,,,,,,,,,,,1,1,2021-01-05_00h41.05.539,CL_C2S3,2020.1.3,Win32,60,,,,,,,,,,,,,2,1,"[1,-1,-1]",2,0,Symb,i,CR,0,0,17,1,1,99,99,i,2.31915,1,1,,,,,,,,,,,,,,,,,,,,,,,,,,,,,,,,,,,,,i,1,2.31915,media/dknb.png,22,0,22,0,1,,,,,,,,,,,,,,,,,,,,,,,,,,,,,,,,,,,,,
,,,,,,,,,,,,,,,,,,,,1,1,2021-01-05_00h41.05.539,CL_C2S3,2020.1.3,Win32,60,,,,,,,,,,,,,1,1,"[1,-1,-1]",1,1,Symb,h,CR,0,0,18,1,1,99,99,h,2.19786,1,1,,,,,,,,,,,,,,,,,,,,,,,,,,,,,,,,,,,,,h,1,2.19786,media/dfnb.png,23,0,23,0,1,,,,,,,,,,,,,,,,,,,,,,,,,,,,,,,,,,,,,
,,,,,,,,,,,,,,,,,,,,1,1,2021-01-05_00h41.05.539,CL_C2S3,2020.1.3,Win32,60,,,,,,,,,,,,,1,2,"[-1,1,-1]",4,1,Symb,i,CR,0,0,19,1,1,99,99,i,0.99022,1,1,,,,,,,,,,,,,,,,,,,,,,,,,,,,,,,,,,,,,i,1,0.99022,media/dfnb.png,24,0,24,0,1,,,,,,,,,,,,,,,,,,,,,,,,,,,,,,,,,,,,,
,,,,,,,,,,,,,,,,,,,,1,1,2021-01-05_00h41.05.539,CL_C2S3,2020.1.3,Win32,60,,,,,,,,,,,,,0,1,"[1,-1,-1]",0,0,Symb,u,CR,0,0,20,1,1,99,99,u,1.00887,1,1,,,,,,,,,,,,,,,,,,,,,,,,,,,,,,,,,,,,,u,1,1.00887,media/dcnb.png,25,0,25,0,1,,,,,,,,,,,,,,,,,,,,,,,,,,,,,,,,,,,,,
,,,,,,,,,,,,,,,,,,,,1,1,2021-01-05_00h41.05.539,CL_C2S3,2020.1.3,Win32,60,,,,,,,,,,,,,0,2,"[-1,1,-1]",3,0,Symb,h,CR,0,0,21,1,1,99,99,h,0.76158,1,1,,,,,,,,,,,,,,,,,,,,,,,,,,,,,,,,,,,,,h,1,0.76158,media/dcnb.png,26,0,26,0,1,,,,,,,,,,,,,,,,,,,,,,,,,,,,,,,,,,,,,
,,,,,,,,,,,,,,,,,,,,1,1,2021-01-05_00h41.05.539,CL_C2S3,2020.1.3,Win32,60,,,,,,,,,,,,,2,2,"[-1,1,-1]",5,0,Symb,u,CR,0,0,22,1,1,99,99,u,1.488095,1,1,,,,,,,,,,,,,,,,,,,,,,,,,,,,,,,,,,,,,u,1,1.488095,media/dknb.png,27,0,27,0,1,,,,,,,,,,,,,,,,,,,,,,,,,,,,,,,,,,,,,
,,,,,,,,,,,,,,,,,,,,1,1,2021-01-05_00h41.05.539,CL_C2S3,2020.1.3,Win32,60,,,,,,,,,,,,,2,2,"[-1,1,-1]",5,0,Symb,u,CR,0,0,23,1,1,99,99,u,0.533675,1,1,,,,,,,,,,,,,,,,,,,,,,,,,,,,,,,,,,,,,u,1,0.533675,media/dknb.png,28,0,28,0,1,,,,,,,,,,,,,,,,,,,,,,,,,,,,,,,,,,,,,
,,,,,,,,,,,,,,,,,,,,1,1,2021-01-05_00h41.05.539,CL_C2S3,2020.1.3,Win32,60,,,,,,,,,,,,,1,1,"[1,-1,-1]",1,1,Symb,h,CR,0,0,24,1,1,99,99,h,4.490625,1,1,,,,,,,,,,,,,,,,,,,,,,,,,,,,,,,,,,,,,h,1,4.490625,media/dfnb.png,29,0,29,0,1,,,,,,,,,,,,,,,,,,,,,,,,,,,,,,,,,,,,,
,,,,,,,,,,,,,,,,,,,,1,1,2021-01-05_00h41.05.539,CL_C2S3,2020.1.3,Win32,60,,,,,,,,,,,,,2,2,"[-1,1,-1]",5,0,Symb,u,CR,0,0,25,1,1,99,99,h,2.614305,0,1,,,,,,,,,,,,,,,,,,,,,,,,,,,,,,,,,,,,,h,0,2.614305,media/dknb.png,30,0,30,0,1,,,,,,,,,,,,,,,,,,,,,,,,,,,,,,,,,,,,,
,,,,,,,,,,,,,,,,,,,,1,1,2021-01-05_00h41.05.539,CL_C2S3,2020.1.3,Win32,60,,,,,,,,,,,,,2,2,"[-1,1,-1]",5,0,Symb,u,CR,0,1,25,1,1,99,99,u,0.26593,1,1,,,,,,,,,,,,,,,,,,,,,,,,,,,,,,,,,,,,,u,1,0.26593,media/dknb.png,31,0,31,0,1,,,,,,,,,,,,,,,,,,,,,,,,,,,,,,,,,,,,,
,,,,,,,,,,,,,,,,,,,,1,1,2021-01-05_00h41.05.539,CL_C2S3,2020.1.3,Win32,60,,,,,,,,,,,,,0,1,"[1,-1,-1]",0,0,Symb,u,CR,0,0,26,1,1,99,99,u,0.894265,1,1,,,,,,,,,,,,,,,,,,,,,,,,,,,,,,,,,,,,,u,1,0.894265,media/dcnb.png,32,0,32,0,1,,,,,,,,,,,,,,,,,,,,,,,,,,,,,,,,,,,,,
,,,,,,,,,,,,,,,,,,,,1,1,2021-01-05_00h41.05.539,CL_C2S3,2020.1.3,Win32,60,,,,,,,,,,,,,1,2,"[-1,1,-1]",4,1,Symb,i,CR,0,0,27,1,1,99,99,i,2.181515,1,1,,,,,,,,,,,,,,,,,,,,,,,,,,,,,,,,,,,,,i,1,2.181515,media/dfnb.png,33,0,33,0,1,,,,,,,,,,,,,,,,,,,,,,,,,,,,,,,,,,,,,
,,,,,,,,,,,,,,,,,,,,1,1,2021-01-05_00h41.05.539,CL_C2S3,2020.1.3,Win32,60,,,,,,,,,,,,,2,1,"[1,-1,-1]",2,0,Symb,i,CR,0,0,28,1,1,99,99,i,0.36419,1,1,,,,,,,,,,,,,,,,,,,,,,,,,,,,,,,,,,,,,i,1,0.36419,media/dknb.png,34,0,34,0,1,,,,,,,,,,,,,,,,,,,,,,,,,,,,,,,,,,,,,
,,,,,,,,,,,,,,,,,,,,1,1,2021-01-05_00h41.05.539,CL_C2S3,2020.1.3,Win32,60,,,,,,,,,,,,,0,2,"[-1,1,-1]",3,0,Symb,h,CR,0,0,29,1,1,99,99,h,2.4186,1,1,,,,,,,,,,,,,,,,,,,,,,,,,,,,,,,,,,,,,h,1,2.4186,media/dcnb.png,35,0,35,0,1,,,,,,,,,,,,,,,,,,,,,,,,,,,,,,,,,,,,,
,,,,,,,,,,,,,,,,,,,,1,1,2021-01-05_00h41.05.539,CL_C2S3,2020.1.3,Win32,60,,,,,,,,,,,,,0,2,"[-1,1,-1]",3,0,Symb,h,CR,0,0,30,1,1,99,99,h,0.81951,1,1,,,,,,,,,,,,,,,,,,,,,,,,,,,,,,,,,,,,,h,1,0.81951,media/dcnb.png,36,0,36,0,1,,,,,,,,,,,,,,,,,,,,,,,,,,,,,,,,,,,,,
,,,,,,,,,,,,,,,,,,,,1,1,2021-01-05_00h41.05.539,CL_C2S3,2020.1.3,Win32,60,,,,,,,,,,,,,1,2,"[-1,1,-1]",4,1,Symb,i,CR,0,0,31,1,1,99,99,i,2.28651,1,1,,,,,,,,,,,,,,,,,,,,,,,,,,,,,,,,,,,,,i,1,2.28651,media/dfnb.png,37,0,37,0,1,,,,,,,,,,,,,,,,,,,,,,,,,,,,,,,,,,,,,
,,,,,,,,,,,,,,,,,,,,1,1,2021-01-05_00h41.05.539,CL_C2S3,2020.1.3,Win32,60,,,,,,,,,,,,,1,1,"[1,-1,-1]",1,1,Symb,h,CR,0,0,32,1,1,99,99,h,0.832385,1,1,,,,,,,,,,,,,,,,,,,,,,,,,,,,,,,,,,,,,h,1,0.832385,media/dfnb.png,38,0,38,0,1,,,,,,,,,,,,,,,,,,,,,,,,,,,,,,,,,,,,,
,,,,,,,,,,,,,,,,,,,,1,1,2021-01-05_00h41.05.539,CL_C2S3,2020.1.3,Win32,60,,,,,,,,,,,,,1,1,"[1,-1,-1]",1,1,Symb,h,CR,0,0,33,1,1,99,99,h,0.53007,1,1,,,,,,,,,,,,,,,,,,,,,,,,,,,,,,,,,,,,,h,1,0.53007,media/dfnb.png,39,0,39,0,1,,,,,,,,,,,,,,,,,,,,,,,,,,,,,,,,,,,,,
,,,,,,,,,,,,,,,,,,,,1,1,2021-01-05_00h41.05.539,CL_C2S3,2020.1.3,Win32,60,,,,,,,,,,,,,2,2,"[-1,1,-1]",5,0,Symb,u,CR,0,0,34,1,1,99,99,u,1.42321,1,1,,,,,,,,,,,,,,,,,,,,,,,,,,,,,,,,,,,,,u,1,1.42321,media/dknb.png,40,0,40,0,1,,,,,,,,,,,,,,,,,,,,,,,,,,,,,,,,,,,,,
,,,,,,,,,,,,,,,,,,,,1,1,2021-01-05_00h41.05.539,CL_C2S3,2020.1.3,Win32,60,,,,,,,,,,,,,0,1,"[1,-1,-1]",0,0,Symb,u,CR,0,0,35,1,1,99,99,u,0.8115,1,1,,,,,,,,,,,,,,,,,,,,,,,,,,,,,,,,,,,,,u,1,0.8115,media/dcnb.png,41,0,41,0,1,,,,,,,,,,,,,,,,,,,,,,,,,,,,,,,,,,,,,
,,,,,,,,,,,,,,,,,,,,1,1,2021-01-05_00h41.05.539,CL_C2S3,2020.1.3,Win32,60,,,,,,,,,,,,,0,1,"[1,-1,-1]",0,0,Symb,u,CR,0,0,36,1,1,99,99,u,0.4903,1,1,,,,,,,,,,,,,,,,,,,,,,,,,,,,,,,,,,,,,u,1,0.4903,media/dcnb.png,42,0,42,0,1,,,,,,,,,,,,,,,,,,,,,,,,,,,,,,,,,,,,,
,,,,,,,,,,,,,,,,,,,,1,1,2021-01-05_00h41.05.539,CL_C2S3,2020.1.3,Win32,60,,,,,,,,,,,,,2,1,"[1,-1,-1]",2,0,Symb,i,CR,0,0,37,1,1,99,99,i,0.92671,1,1,,,,,,,,,,,,,,,,,,,,,,,,,,,,,,,,,,,,,i,1,0.92671,media/dknb.png,43,0,43,0,1,,,,,,,,,,,,,,,,,,,,,,,,,,,,,,,,,,,,,
,,,,,,,,,,,,,,,,,,,,1,1,2021-01-05_00h41.05.539,CL_C2S3,2020.1.3,Win32,60,,,,,,,,,,,,,0,1,"[1,-1,-1]",0,0,Symb,u,RT,0,0,1,1,1,99,99,u,1.003885,1,1,,,,,,,,h,0.803465,,,,,,,,,,,,,,,,,,,,,,,,,,,,u,1,1.003885,media/dcnb.png,,,,,,h,23.18128,0,0,0,0,1,,,,,,,,,,,,,,,,,,,,,,,,,,,,,,
,,,,,,,,,,,,,,,,,,,,1,1,2021-01-05_00h41.05.539,CL_C2S3,2020.1.3,Win32,60,,,,,,,,,,,,,2,2,"[-1,1,-1]",5,0,Symb,u,RT,0,0,2,1,1,99,99,u,0.808705,1,1,,,,,,,,,,,,,,,,,,,,,,,,,,,,,,,,,,,,,u,1,0.808705,media/dknb.png,,,,,,,,1,0,1,0,1,,,,,,,,,,,,,,,,,,,,,,,,,,,,,,
,,,,,,,,,,,,,,,,,,,,1,1,2021-01-05_00h41.05.539,CL_C2S3,2020.1.3,Win32,60,,,,,,,,,,,,,0,2,"[-1,1,-1]",3,0,Symb,h,RT,0,0,3,1,1,99,99,u,1.563905,0,1,,,,,,,,,,,,,,,,,,,,,,,,,,,,,,,,,,,,,u,0,1.563905,media/dcnb.png,,,,,,,,2,0,2,0,1,,,,,,,,,,,,,,,,,,,,,,,,,,,,,,
,,,,,,,,,,,,,,,,,,,,1,1,2021-01-05_00h41.05.539,CL_C2S3,2020.1.3,Win32,60,,,,,,,,,,,,,1,1,"[1,-1,-1]",1,1,Symb,h,RT,0,0,4,1,1,99,99,i,0.71076,0,1,,,,,,,,,,,,,,,,,,,,,,,,,,,,,,,,,,,,,i,0,0.71076,media/dfnb.png,,,,,,,,3,0,3,0,1,,,,,,,,,,,,,,,,,,,,,,,,,,,,,,
,,,,,,,,,,,,,,,,,,,,1,1,2021-01-05_00h41.05.539,CL_C2S3,2020.1.3,Win32,60,,,,,,,,,,,,,2,2,"[-1,1,-1]",5,0,Symb,u,RT,0,0,5,1,1,99,99,h,1.504235,0,1,,,,,,,,,,,,,,,,,,,,,,,,,,,,,,,,,,,,,h,0,1.504235,media/dknb.png,,,,,,,,4,0,4,0,1,,,,,,,,,,,,,,,,,,,,,,,,,,,,,,
,,,,,,,,,,,,,,,,,,,,1,1,2021-01-05_00h41.05.539,CL_C2S3,2020.1.3,Win32,60,,,,,,,,,,,,,0,2,"[-1,1,-1]",3,0,Symb,h,RT,0,0,6,1,1,99,99,h,2.31865,1,1,,,,,,,,,,,,,,,,,,,,,,,,,,,,,,,,,,,,,h,1,2.31865,media/dcnb.png,,,,,,,,5,0,5,0,1,,,,,,,,,,,,,,,,,,,,,,,,,,,,,,
,,,,,,,,,,,,,,,,,,,,1,1,2021-01-05_00h41.05.539,CL_C2S3,2020.1.3,Win32,60,,,,,,,,,,,,,1,2,"[-1,1,-1]",4,1,Symb,i,RT,0,0,7,1,1,99,99,u,1.3089,0,1,,,,,,,,,,,,,,,,,,,,,,,,,,,,,,,,,,,,,u,0,1.3089,media/dfnb.png,,,,,,,,6,0,6,0,1,,,,,,,,,,,,,,,,,,,,,,,,,,,,,,
,,,,,,,,,,,,,,,,,,,,1,1,2021-01-05_00h41.05.539,CL_C2S3,2020.1.3,Win32,60,,,,,,,,,,,,,1,1,"[1,-1,-1]",1,1,Symb,h,RT,0,0,8,1,1,99,99,h,0.86302,1,1,,,,,,,,,,,,,,,,,,,,,,,,,,,,,,,,,,,,,h,1,0.86302,media/dfnb.png,,,,,,,,7,0,7,0,1,,,,,,,,,,,,,,,,,,,,,,,,,,,,,,
,,,,,,,,,,,,,,,,,,,,1,1,2021-01-05_00h41.05.539,CL_C2S3,2020.1.3,Win32,60,,,,,,,,,,,,,0,1,"[1,-1,-1]",0,0,Symb,u,RT,0,0,9,1,1,99,99,u,1.34915,1,1,,,,,,,,,,,,,,,,,,,,,,,,,,,,,,,,,,,,,u,1,1.34915,media/dcnb.png,,,,,,,,8,0,8,0,1,,,,,,,,,,,,,,,,,,,,,,,,,,,,,,
,,,,,,,,,,,,,,,,,,,,1,1,2021-01-05_00h41.05.539,CL_C2S3,2020.1.3,Win32,60,,,,,,,,,,,,,2,1,"[1,-1,-1]",2,0,Symb,i,RT,0,0,10,1,1,99,99,i,0.73389,1,1,,,,,,,,,,,,,,,,,,,,,,,,,,,,,,,,,,,,,i,1,0.73389,media/dknb.png,,,,,,,,9,0,9,0,1,,,,,,,,,,,,,,,,,,,,,,,,,,,,,,
,,,,,,,,,,,,,,,,,,,,1,1,2021-01-05_00h41.05.539,CL_C2S3,2020.1.3,Win32,60,,,,,,,,,,,,,2,1,"[1,-1,-1]",2,0,Symb,i,RT,0,0,11,1,1,99,99,i,0.46776,1,1,,,,,,,,,,,,,,,,,,,,,,,,,,,,,,,,,,,,,i,1,0.46776,media/dknb.png,,,,,,,,10,0,10,0,1,,,,,,,,,,,,,,,,,,,,,,,,,,,,,,
,,,,,,,,,,,,,,,,,,,,1,1,2021-01-05_00h41.05.539,CL_C2S3,2020.1.3,Win32,60,,,,,,,,,,,,,1,2,"[-1,1,-1]",4,1,Symb,i,RT,0,0,12,1,1,99,99,i,0.5753,1,1,,,,,,,,,,,,,,,,,,,,,,,,,,,,,,,,,,,,,i,1,0.5753,media/dfnb.png,,,,,,,,11,0,11,0,1,,,,,,,,,,,,,,,,,,,,,,,,,,,,,,
,,,,,,,,,,,,,,,,,,,,1,1,2021-01-05_00h41.05.539,CL_C2S3,2020.1.3,Win32,60,,,,,,,,,,,,,1,2,"[-1,1,-1]",4,1,Symb,i,RT,0,0,13,1,1,99,99,i,0.42036,1,1,,,,,,,,,,,,,,,,,,,,,,,,,,,,,,,,,,,,,i,1,0.42036,media/dfnb.png,,,,,,,,12,0,12,0,1,,,,,,,,,,,,,,,,,,,,,,,,,,,,,,
,,,,,,,,,,,,,,,,,,,,1,1,2021-01-05_00h41.05.539,CL_C2S3,2020.1.3,Win32,60,,,,,,,,,,,,,0,1,"[1,-1,-1]",0,0,Symb,u,RT,0,0,14,1,1,99,99,u,1.398005,1,1,,,,,,,,,,,,,,,,,,,,,,,,,,,,,,,,,,,,,u,1,1.398005,media/dcnb.png,,,,,,,,13,0,13,0,1,,,,,,,,,,,,,,,,,,,,,,,,,,,,,,
,,,,,,,,,,,,,,,,,,,,1,1,2021-01-05_00h41.05.539,CL_C2S3,2020.1.3,Win32,60,,,,,,,,,,,,,1,1,"[1,-1,-1]",1,1,Symb,h,RT,0,0,15,1,1,99,99,h,1.07148,1,1,,,,,,,,,,,,,,,,,,,,,,,,,,,,,,,,,,,,,h,1,1.07148,media/dfnb.png,,,,,,,,14,0,14,0,1,,,,,,,,,,,,,,,,,,,,,,,,,,,,,,
,,,,,,,,,,,,,,,,,,,,1,1,2021-01-05_00h41.05.539,CL_C2S3,2020.1.3,Win32,60,,,,,,,,,,,,,0,2,"[-1,1,-1]",3,0,Symb,h,RT,0,0,16,1,1,99,99,h,1.032395,1,1,,,,,,,,,,,,,,,,,,,,,,,,,,,,,,,,,,,,,h,1,1.032395,media/dcnb.png,,,,,,,,15,0,15,0,1,,,,,,,,,,,,,,,,,,,,,,,,,,,,,,
,,,,,,,,,,,,,,,,,,,,1,1,2021-01-05_00h41.05.539,CL_C2S3,2020.1.3,Win32,60,,,,,,,,,,,,,2,2,"[-1,1,-1]",5,0,Symb,u,RT,0,0,17,1,1,99,99,u,0.705215,1,1,,,,,,,,,,,,,,,,,,,,,,,,,,,,,,,,,,,,,u,1,0.705215,media/dknb.png,,,,,,,,16,0,16,0,1,,,,,,,,,,,,,,,,,,,,,,,,,,,,,,
,,,,,,,,,,,,,,,,,,,,1,1,2021-01-05_00h41.05.539,CL_C2S3,2020.1.3,Win32,60,,,,,,,,,,,,,0,1,"[1,-1,-1]",0,0,Symb,u,RT,0,0,18,1,1,99,99,u,1.05976,1,1,,,,,,,,,,,,,,,,,,,,,,,,,,,,,,,,,,,,,u,1,1.05976,media/dcnb.png,,,,,,,,17,0,17,0,1,,,,,,,,,,,,,,,,,,,,,,,,,,,,,,
,,,,,,,,,,,,,,,,,,,,1,1,2021-01-05_00h41.05.539,CL_C2S3,2020.1.3,Win32,60,,,,,,,,,,,,,1,1,"[1,-1,-1]",1,1,Symb,h,RT,0,0,19,1,1,99,99,i,0.72005,0,1,,,,,,,,,,,,,,,,,,,,,,,,,,,,,,,,,,,,,i,0,0.72005,media/dfnb.png,,,,,,,,18,0,18,0,1,,,,,,,,,,,,,,,,,,,,,,,,,,,,,,
,,,,,,,,,,,,,,,,,,,,1,1,2021-01-05_00h41.05.539,CL_C2S3,2020.1.3,Win32,60,,,,,,,,,,,,,2,1,"[1,-1,-1]",2,0,Symb,i,RT,0,0,20,1,1,99,99,i,0.80489,1,1,,,,,,,,,,,,,,,,,,,,,,,,,,,,,,,,,,,,,i,1,0.80489,media/dknb.png,,,,,,,,19,0,19,0,1,,,,,,,,,,,,,,,,,,,,,,,,,,,,,,
,,,,,,,,,,,,,,,,,,,,1,1,2021-01-05_00h41.05.539,CL_C2S3,2020.1.3,Win32,60,,,,,,,,,,,,,0,2,"[-1,1,-1]",3,0,Symb,h,RT,0,0,21,1,1,99,99,h,0.94747,1,1,,,,,,,,,,,,,,,,,,,,,,,,,,,,,,,,,,,,,h,1,0.94747,media/dcnb.png,,,,,,,,20,0,20,0,1,,,,,,,,,,,,,,,,,,,,,,,,,,,,,,
,,,,,,,,,,,,,,,,,,,,1,1,2021-01-05_00h41.05.539,CL_C2S3,2020.1.3,Win32,60,,,,,,,,,,,,,2,1,"[1,-1,-1]",2,0,Symb,i,RT,0,0,22,1,1,99,99,i,1.060585,1,1,,,,,,,,,,,,,,,,,,,,,,,,,,,,,,,,,,,,,i,1,1.060585,media/dknb.png,,,,,,,,21,0,21,0,1,,,,,,,,,,,,,,,,,,,,,,,,,,,,,,
,,,,,,,,,,,,,,,,,,,,1,1,2021-01-05_00h41.05.539,CL_C2S3,2020.1.3,Win32,60,,,,,,,,,,,,,2,2,"[-1,1,-1]",5,0,Symb,u,RT,0,0,23,1,1,99,99,u,1.58661,1,1,,,,,,,,,,,,,,,,,,,,,,,,,,,,,,,,,,,,,u,1,1.58661,media/dknb.png,,,,,,,,22,0,22,0,1,,,,,,,,,,,,,,,,,,,,,,,,,,,,,,
,,,,,,,,,,,,,,,,,,,,1,1,2021-01-05_00h41.05.539,CL_C2S3,2020.1.3,Win32,60,,,,,,,,,,,,,1,2,"[-1,1,-1]",4,1,Symb,i,RT,0,0,24,1,1,99,99,i,0.889905,1,1,,,,,,,,,,,,,,,,,,,,,,,,,,,,,,,,,,,,,i,1,0.889905,media/dfnb.png,,,,,,,,23,0,23,0,1,,,,,,,,,,,,,,,,,,,,,,,,,,,,,,
,,,,,,,,,,,,,,,,,,,,1,1,2021-01-05_00h41.05.539,CL_C2S3,2020.1.3,Win32,60,,,,,,,,,,,,,0,2,"[-1,1,-1]",3,0,Symb,h,RT,0,0,25,1,1,99,99,h,0.982585,1,1,,,,,,,,,,,,,,,,,,,,,,,,,,,,,,,,,,,,,h,1,0.982585,media/dcnb.png,,,,,,,,24,0,24,0,1,,,,,,,,,,,,,,,,,,,,,,,,,,,,,,
,,,,,,,,,,,,,,,,,,,,1,1,2021-01-05_00h41.05.539,CL_C2S3,2020.1.3,Win32,60,,,,,,,,,,,,,1,1,"[1,-1,-1]",1,1,Symb,h,RT,0,0,26,1,1,99,99,i,1.31119,0,1,,,,,,,,,,,,,,,,,,,,,,,,,,,,,,,,,,,,,i,0,1.31119,media/dfnb.png,,,,,,,,25,0,25,0,1,,,,,,,,,,,,,,,,,,,,,,,,,,,,,,
,,,,,,,,,,,,,,,,,,,,1,1,2021-01-05_00h41.05.539,CL_C2S3,2020.1.3,Win32,60,,,,,,,,,,,,,1,2,"[-1,1,-1]",4,1,Symb,i,RT,0,0,27,1,1,99,99,i,1.66992,1,1,,,,,,,,,,,,,,,,,,,,,,,,,,,,,,,,,,,,,i,1,1.66992,media/dfnb.png,,,,,,,,26,0,26,0,1,,,,,,,,,,,,,,,,,,,,,,,,,,,,,,
,,,,,,,,,,,,,,,,,,,,1,1,2021-01-05_00h41.05.539,CL_C2S3,2020.1.3,Win32,60,,,,,,,,,,,,,2,2,"[-1,1,-1]",5,0,Symb,u,RT,0,0,28,1,1,99,99,u,1.491565,1,1,,,,,,,,,,,,,,,,,,,,,,,,,,,,,,,,,,,,,u,1,1.491565,media/dknb.png,,,,,,,,27,0,27,0,1,,,,,,,,,,,,,,,,,,,,,,,,,,,,,,
,,,,,,,,,,,,,,,,,,,,1,1,2021-01-05_00h41.05.539,CL_C2S3,2020.1.3,Win32,60,,,,,,,,,,,,,2,1,"[1,-1,-1]",2,0,Symb,i,RT,0,0,29,1,1,99,99,i,1.155415,1,1,,,,,,,,,,,,,,,,,,,,,,,,,,,,,,,,,,,,,i,1,1.155415,media/dknb.png,,,,,,,,28,0,28,0,1,,,,,,,,,,,,,,,,,,,,,,,,,,,,,,
,,,,,,,,,,,,,,,,,,,,1,1,2021-01-05_00h41.05.539,CL_C2S3,2020.1.3,Win32,60,,,,,,,,,,,,,0,1,"[1,-1,-1]",0,0,Symb,u,RT,0,0,30,1,1,99,99,u,1.10002,1,1,,,,,,,,,,,,,,,,,,,,,,,,,,,,,,,,,,,,,u,1,1.10002,media/dcnb.png,,,,,,,,29,0,29,0,1,,,,,,,,,,,,,,,,,,,,,,,,,,,,,,
,,,,,,,,,,,,,,,,,,,,1,1,2021-01-05_00h41.05.539,CL_C2S3,2020.1.3,Win32,60,,,,,,,,,,,,,1,1,"[1,-1,-1]",1,1,Symb,h,RT,0,0,31,1,1,99,99,i,0.786955,0,1,,,,,,,,,,,,,,,,,,,,,,,,,,,,,,,,,,,,,i,0,0.786955,media/dfnb.png,,,,,,,,30,0,30,0,1,,,,,,,,,,,,,,,,,,,,,,,,,,,,,,
,,,,,,,,,,,,,,,,,,,,1,1,2021-01-05_00h41.05.539,CL_C2S3,2020.1.3,Win32,60,,,,,,,,,,,,,0,2,"[-1,1,-1]",3,0,Symb,h,RT,0,0,32,1,1,99,99,h,3.597185,1,1,,,,,,,,,,,,,,,,,,,,,,,,,,,,,,,,,,,,,h,1,3.597185,media/dcnb.png,,,,,,,,31,0,31,0,1,,,,,,,,,,,,,,,,,,,,,,,,,,,,,,
,,,,,,,,,,,,,,,,,,,,1,1,2021-01-05_00h41.05.539,CL_C2S3,2020.1.3,Win32,60,,,,,,,,,,,,,2,1,"[1,-1,-1]",2,0,Symb,i,RT,0,0,33,1,1,99,99,i,0.788245,1,1,,,,,,,,,,,,,,,,,,,,,,,,,,,,,,,,,,,,,i,1,0.788245,media/dknb.png,,,,,,,,32,0,32,0,1,,,,,,,,,,,,,,,,,,,,,,,,,,,,,,
,,,,,,,,,,,,,,,,,,,,1,1,2021-01-05_00h41.05.539,CL_C2S3,2020.1.3,Win32,60,,,,,,,,,,,,,1,2,"[-1,1,-1]",4,1,Symb,i,RT,0,0,34,1,1,99,99,i,0.998105,1,1,,,,,,,,,,,,,,,,,,,,,,,,,,,,,,,,,,,,,i,1,0.998105,media/dfnb.png,,,,,,,,33,0,33,0,1,,,,,,,,,,,,,,,,,,,,,,,,,,,,,,
,,,,,,,,,,,,,,,,,,,,1,1,2021-01-05_00h41.05.539,CL_C2S3,2020.1.3,Win32,60,,,,,,,,,,,,,1,2,"[-1,1,-1]",4,1,Symb,i,RT,0,0,35,1,1,99,99,i,0.48789,1,1,,,,,,,,,,,,,,,,,,,,,,,,,,,,,,,,,,,,,i,1,0.48789,media/dfnb.png,,,,,,,,34,0,34,0,1,,,,,,,,,,,,,,,,,,,,,,,,,,,,,,
,,,,,,,,,,,,,,,,,,,,1,1,2021-01-05_00h41.05.539,CL_C2S3,2020.1.3,Win32,60,,,,,,,,,,,,,2,1,"[1,-1,-1]",2,0,Symb,i,RT,0,0,36,1,1,99,99,i,1.53099,1,1,,,,,,,,,,,,,,,,,,,,,,,,,,,,,,,,,,,,,i,1,1.53099,media/dknb.png,,,,,,,,35,0,35,0,1,,,,,,,,,,,,,,,,,,,,,,,,,,,,,,
,,,,,,,,,,,,,,,,,,,,1,1,2021-01-05_00h41.05.539,CL_C2S3,2020.1.3,Win32,60,,,,,,,,,,,,,2,2,"[-1,1,-1]",5,0,Symb,u,RT,0,0,37,1,1,99,99,u,1.02548,1,1,,,,,,,,,,,,,,,,,,,,,,,,,,,,,,,,,,,,,u,1,1.02548,media/dknb.png,,,,,,,,36,0,36,0,1,,,,,,,,,,,,,,,,,,,,,,,,,,,,,,
,,,,,,,,,,,,,,,,,,,,1,1,2021-01-05_00h41.05.539,CL_C2S3,2020.1.3,Win32,60,,,,,,,,,,,,,0,1,"[1,-1,-1]",0,0,Symb,u,RT,0,0,38,1,1,99,99,u,1.17814,1,1,,,,,,,,,,,,,,,,,,,,,,,,,,,,,,,,,,,,,u,1,1.17814,media/dcnb.png,,,,,,,,37,0,37,0,1,,,,,,,,,,,,,,,,,,,,,,,,,,,,,,
,,,,,,,,,,,,,,,,,,,,1,1,2021-01-05_00h41.05.539,CL_C2S3,2020.1.3,Win32,60,,,,,,,,,,,,,2,2,"[-1,1,-1]",5,0,Symb,u,RT,0,0,39,1,1,99,99,u,1.632515,1,1,,,,,,,,,,,,,,,,,,,,,,,,,,,,,,,,,,,,,u,1,1.632515,media/dknb.png,,,,,,,,38,0,38,0,1,,,,,,,,,,,,,,,,,,,,,,,,,,,,,,
,,,,,,,,,,,,,,,,,,,,1,1,2021-01-05_00h41.05.539,CL_C2S3,2020.1.3,Win32,60,,,,,,,,,,,,,0,2,"[-1,1,-1]",3,0,Symb,h,RT,0,0,40,1,1,99,99,h,0.967925,1,1,,,,,,,,,,,,,,,,,,,,,,,,,,,,,,,,,,,,,h,1,0.967925,media/dcnb.png,,,,,,,,39,0,39,0,1,,,,,,,,,,,,,,,,,,,,,,,,,,,,,,
,,,,,,,,,,,,,,,,,,,,1,1,2021-01-05_00h41.05.539,CL_C2S3,2020.1.3,Win32,60,,,,,,,,,,,,,0,1,"[1,-1,-1]",0,0,Symb,u,RT,0,0,41,1,1,99,99,u,1.264205,1,1,,,,,,,,,,,,,,,,,,,,,,,,,,,,,,,,,,,,,u,1,1.264205,media/dcnb.png,,,,,,,,40,0,40,0,1,,,,,,,,,,,,,,,,,,,,,,,,,,,,,,
,,,,,,,,,,,,,,,,,,,,1,1,2021-01-05_00h41.05.539,CL_C2S3,2020.1.3,Win32,60,,,,,,,,,,,,,1,1,"[1,-1,-1]",1,1,Symb,h,RT,0,0,42,1,1,99,99,i,1.12896,0,1,,,,,,,,,,,,,,,,,,,,,,,,,,,,,,,,,,,,,i,0,1.12896,media/dfnb.png,,,,,,,,41,0,41,0,1,,,,,,,,,,,,,,,,,,,,,,,,,,,,,,
,,,,,,,,,,,,,,,,,,,,1,1,2021-01-05_00h41.05.539,CL_C2S3,2020.1.3,Win32,60,,,,,,,,,,,,,2,1,"[1,-1,-1]",2,0,Symb,i,RT,0,0,43,1,1,99,99,i,1.01843,1,1,,,,,,,,,,,,,,,,,,,,,,,,,,,,,,,,,,,,,i,1,1.01843,media/dknb.png,,,,,,,,42,0,42,0,1,,,,,,,,,,,,,,,,,,,,,,,,,,,,,,
,,,,,,,,,,,,,,,,,,,,1,1,2021-01-05_00h41.05.539,CL_C2S3,2020.1.3,Win32,60,,,,,,,,,,,,,0,2,"[-1,1,-1]",3,0,Symb,h,RT,0,0,44,1,1,99,99,h,2.822885,1,1,,,,,,,,,,,,,,,,,,,,,,,,,,,,,,,,,,,,,h,1,2.822885,media/dcnb.png,,,,,,,,43,0,43,0,1,,,,,,,,,,,,,,,,,,,,,,,,,,,,,,
,,,,,,,,,,,,,,,,,,,,1,1,2021-01-05_00h41.05.539,CL_C2S3,2020.1.3,Win32,60,,,,,,,,,,,,,2,2,"[-1,1,-1]",5,0,Symb,u,RT,0,0,45,1,1,99,99,u,1.267245,1,1,,,,,,,,,,,,,,,,,,,,,,,,,,,,,,,,,,,,,u,1,1.267245,media/dknb.png,,,,,,,,44,0,44,0,1,,,,,,,,,,,,,,,,,,,,,,,,,,,,,,
,,,,,,,,,,,,,,,,,,,,1,1,2021-01-05_00h41.05.539,CL_C2S3,2020.1.3,Win32,60,,,,,,,,,,,,,0,1,"[1,-1,-1]",0,0,Symb,u,RT,0,0,46,1,1,99,99,u,1.60058,1,1,,,,,,,,,,,,,,,,,,,,,,,,,,,,,,,,,,,,,u,1,1.60058,media/dcnb.png,,,,,,,,45,0,45,0,1,,,,,,,,,,,,,,,,,,,,,,,,,,,,,,
,,,,,,,,,,,,,,,,,,,,1,1,2021-01-05_00h41.05.539,CL_C2S3,2020.1.3,Win32,60,,,,,,,,,,,,,0,1,"[1,-1,-1]",0,0,Symb,u,RT,0,0,47,1,1,99,99,u,0.464715,1,1,,,,,,,,,,,,,,,,,,,,,,,,,,,,,,,,,,,,,u,1,0.464715,media/dcnb.png,,,,,,,,46,0,46,0,1,,,,,,,,,,,,,,,,,,,,,,,,,,,,,,
,,,,,,,,,,,,,,,,,,,,1,1,2021-01-05_00h41.05.539,CL_C2S3,2020.1.3,Win32,60,,,,,,,,,,,,,1,1,"[1,-1,-1]",1,1,Symb,h,RT,0,0,48,1,1,99,99,h,0.78797,1,1,,,,,,,,,,,,,,,,,,,,,,,,,,,,,,,,,,,,,h,1,0.78797,media/dfnb.png,,,,,,,,47,0,47,0,1,,,,,,,,,,,,,,,,,,,,,,,,,,,,,,
,,,,,,,,,,,,,,,,,,,,1,1,2021-01-05_00h41.05.539,CL_C2S3,2020.1.3,Win32,60,,,,,,,,,,,,,2,1,"[1,-1,-1]",2,0,Symb,i,RT,0,0,49,1,1,99,99,i,0.80739,1,1,,,,,,,,,,,,,,,,,,,,,,,,,,,,,,,,,,,,,i,1,0.80739,media/dknb.png,,,,,,,,48,0,48,0,1,,,,,,,,,,,,,,,,,,,,,,,,,,,,,,
,,,,,,,,,,,,,,,,,,,,1,1,2021-01-05_00h41.05.539,CL_C2S3,2020.1.3,Win32,60,,,,,,,,,,,,,2,2,"[-1,1,-1]",5,0,Symb,u,RT,0,0,50,1,1,99,99,u,0.916085,1,1,,,,,,,,,,,,,,,,,,,,,,,,,,,,,,,,,,,,,u,1,0.916085,media/dknb.png,,,,,,,,49,0,49,0,1,,,,,,,,,,,,,,,,,,,,,,,,,,,,,,
,,,,,,,,,,,,,,,,,,,,1,1,2021-01-05_00h41.05.539,CL_C2S3,2020.1.3,Win32,60,,,,,,,,,,,,,0,2,"[-1,1,-1]",3,0,Symb,h,RT,0,0,51,1,1,99,99,h,1.28717,1,1,,,,,,,,,,,,,,,,,,,,,,,,,,,,,,,,,,,,,h,1,1.28717,media/dcnb.png,,,,,,,,50,0,50,0,1,,,,,,,,,,,,,,,,,,,,,,,,,,,,,,
,,,,,,,,,,,,,,,,,,,,1,1,2021-01-05_00h41.05.539,CL_C2S3,2020.1.3,Win32,60,,,,,,,,,,,,,1,2,"[-1,1,-1]",4,1,Symb,i,RT,0,0,52,1,1,99,99,i,0.57434,1,1,,,,,,,,,,,,,,,,,,,,,,,,,,,,,,,,,,,,,i,1,0.57434,media/dfnb.png,,,,,,,,51,0,51,0,1,,,,,,,,,,,,,,,,,,,,,,,,,,,,,,
,,,,,,,,,,,,,,,,,,,,1,1,2021-01-05_00h41.05.539,CL_C2S3,2020.1.3,Win32,60,,,,,,,,,,,,,1,1,"[1,-1,-1]",1,1,Symb,h,RT,0,0,53,1,1,99,99,h,0.846855,1,1,,,,,,,,,,,,,,,,,,,,,,,,,,,,,,,,,,,,,h,1,0.846855,media/dfnb.png,,,,,,,,52,0,52,0,1,,,,,,,,,,,,,,,,,,,,,,,,,,,,,,
,,,,,,,,,,,,,,,,,,,,1,1,2021-01-05_00h41.05.539,CL_C2S3,2020.1.3,Win32,60,,,,,,,,,,,,,1,2,"[-1,1,-1]",4,1,Symb,i,RT,0,0,54,1,1,99,99,i,0.722195,1,1,,,,,,,,,,,,,,,,,,,,,,,,,,,,,,,,,,,,,i,1,0.722195,media/dfnb.png,,,,,,,,53,0,53,0,1,,,,,,,,,,,,,,,,,,,,,,,,,,,,,,
,,,,,,,,,,,,,,,,,,,,1,1,2021-01-05_00h41.05.539,CL_C2S3,2020.1.3,Win32,60,,,,,,,,,,,,,0,2,"[-1,1,-1]",3,0,Symb,h,RT,0,0,55,1,1,99,99,u,5.0398,0,1,,,,,,,,,,,,,,,,,,,,,,,,,,,,,,,,,,,,,u,0,5.0398,media/dcnb.png,,,,,,,,54,0,54,0,1,,,,,,,,,,,,,,,,,,,,,,,,,,,,,,
,,,,,,,,,,,,,,,,,,,,1,1,2021-01-05_00h41.05.539,CL_C2S3,2020.1.3,Win32,60,,,,,,,,,,,,,2,2,"[-1,1,-1]",5,0,Symb,u,RT,0,0,56,1,1,99,99,u,1.75365,1,1,,,,,,,,,,,,,,,,,,,,,,,,,,,,,,,,,,,,,u,1,1.75365,media/dknb.png,,,,,,,,55,0,55,0,1,,,,,,,,,,,,,,,,,,,,,,,,,,,,,,
,,,,,,,,,,,,,,,,,,,,1,1,2021-01-05_00h41.05.539,CL_C2S3,2020.1.3,Win32,60,,,,,,,,,,,,,1,1,"[1,-1,-1]",1,1,Symb,h,RT,0,0,57,1,1,99,99,i,0.67288,0,1,,,,,,,,,,,,,,,,,,,,,,,,,,,,,,,,,,,,,i,0,0.67288,media/dfnb.png,,,,,,,,56,0,56,0,1,,,,,,,,,,,,,,,,,,,,,,,,,,,,,,
,,,,,,,,,,,,,,,,,,,,1,1,2021-01-05_00h41.05.539,CL_C2S3,2020.1.3,Win32,60,,,,,,,,,,,,,0,1,"[1,-1,-1]",0,0,Symb,u,RT,0,0,58,1,1,99,99,u,3.96494,1,1,,,,,,,,,,,,,,,,,,,,,,,,,,,,,,,,,,,,,u,1,3.96494,media/dcnb.png,,,,,,,,57,0,57,0,1,,,,,,,,,,,,,,,,,,,,,,,,,,,,,,
,,,,,,,,,,,,,,,,,,,,1,1,2021-01-05_00h41.05.539,CL_C2S3,2020.1.3,Win32,60,,,,,,,,,,,,,1,2,"[-1,1,-1]",4,1,Symb,i,RT,0,0,59,1,1,99,99,h,0.973515,0,1,,,,,,,,,,,,,,,,,,,,,,,,,,,,,,,,,,,,,h,0,0.973515,media/dfnb.png,,,,,,,,58,0,58,0,1,,,,,,,,,,,,,,,,,,,,,,,,,,,,,,
,,,,,,,,,,,,,,,,,,,,1,1,2021-01-05_00h41.05.539,CL_C2S3,2020.1.3,Win32,60,,,,,,,,,,,,,2,1,"[1,-1,-1]",2,0,Symb,i,RT,0,0,60,1,1,99,99,i,0.80695,1,1,,,,,,,,,,,,,,,,,,,,,,,,,,,,,,,,,,,,,i,1,0.80695,media/dknb.png,,,,,,,,59,0,59,0,1,,,,,,,,,,,,,,,,,,,,,,,,,,,,,,
,,,,,,,,,,,,,,,,,,,,1,1,2021-01-05_00h41.05.539,CL_C2S3,2020.1.3,Win32,60,,,,,,,,,,,,,0,1,"[1,-1,-1]",0,0,Symb,u,RT,0,0,61,1,1,99,99,u,1.656825,1,1,,,,,,,,,,,,,,,,,,,,,,,,,,,,,,,,,,,,,u,1,1.656825,media/dcnb.png,,,,,,,,60,0,60,0,1,,,,,,,,,,,,,,,,,,,,,,,,,,,,,,
,,,,,,,,,,,,,,,,,,,,1,1,2021-01-05_00h41.05.539,CL_C2S3,2020.1.3,Win32,60,,,,,,,,,,,,,1,2,"[-1,1,-1]",4,1,Symb,i,RT,0,0,62,1,1,99,99,i,1.05402,1,1,,,,,,,,,,,,,,,,,,,,,,,,,,,,,,,,,,,,,i,1,1.05402,media/dfnb.png,,,,,,,,61,0,61,0,1,,,,,,,,,,,,,,,,,,,,,,,,,,,,,,
