Ctx_Color_List,stim_key_map_ctx1,stim_key_map_ctx2,stim_key_remap_ctx1,stim_key_remap_ctx2,Import_File.thisRepN,Import_File.thisTrialN,Import_File.thisN,Import_File.thisIndex,Import_File.ran,Stim,Ctx_Color,Key,KeyNum,imStim,X_Pos,Y_Pos,Hand,Check,Cross,participant,session,date,expName,psychopyVersion,OS,frameRate,Instr_RT_Old_Press.keys,Instr_RT_Old_Press.rt,Instr_Block_Num_Press.keys,Instr_Block_Num_Press.rt,RT_Press.keys,RT_Press.corr,RT_Press.rt,Symbol,Shape,Ctx,Color,Stim_Num,Key_Num,Stim_Type,True_Key,Block_Type,Remap,Repeat_Count,Trial_Count,Grp,Block_Num,Prep_Time,Ctx_Prep_Time,Actual_Press,RT,Correct,Session,RT_Old_Iter.thisRepN,RT_Old_Iter.thisTrialN,RT_Old_Iter.thisN,RT_Old_Iter.thisIndex,RT_Old_Iter.ran,RT_Old_Block.thisRepN,RT_Old_Block.thisTrialN,RT_Old_Block.thisN,RT_Old_Block.thisIndex,RT_Old_Block.ran,Instr_TR_Old_Press.keys,Instr_TR_Old_Press.rt,TR_Press.keys,TR_Press.corr,TR_Press.rt,TR_Feedback_Old_Bool.thisRepN,TR_Feedback_Old_Bool.thisTrialN,TR_Feedback_Old_Bool.thisN,TR_Feedback_Old_Bool.thisIndex,TR_Feedback_Old_Bool.ran,TR_Old_Iter.thisRepN,TR_Old_Iter.thisTrialN,TR_Old_Iter.thisN,TR_Old_Iter.thisIndex,TR_Old_Iter.ran,TR_Penalty_Press.keys,TR_Penalty_Press.rt,TR_Penalty_Old_Bool.thisRepN,TR_Penalty_Old_Bool.thisTrialN,TR_Penalty_Old_Bool.thisN,TR_Penalty_Old_Bool.thisIndex,TR_Penalty_Old_Bool.ran,TR_Old_Block.thisRepN,TR_Old_Block.thisTrialN,TR_Old_Block.thisN,TR_Old_Block.thisIndex,TR_Old_Block.ran,Instr_End_Exp_Key.keys,Instr_End_Exp_Key.rt
"[[1,-1,-1],[-1,1,-1]]","[1,0,2]","[0,2,1]","[0,2,1]","[1,0,2]",0,0,0,0,1,0,"[1, -1, -1]",h,0,media/dcnb.png,-0.038,0.075,media/hand.png,media/check.png,media/cross.png,1,3,2021-01-08_18h16.05.156,CL_C2S3,2020.1.3,Win32,60,,,,,,,,,,,,,,,,,,,,,,,,,,,,,,,,,,,,,,,,,,,,,,,,,,,,,,,,,,,,,,,,,,
"[[1,-1,-1],[-1,1,-1],[1,-1,-1],[-1,1,-1]]","[1,0,2]","[0,2,1]","[0,2,1]","[1,0,2]",0,1,1,1,1,1,"[-1, 1, -1]",u,1,media/dfnb.png,0.014,0.1,,,,1,3,2021-01-08_18h16.05.156,CL_C2S3,2020.1.3,Win32,60,,,,,,,,,,,,,,,,,,,,,,,,,,,,,,,,,,,,,,,,,,,,,,,,,,,,,,,,,,,,,,,,,,
"[[1,-1,-1],[-1,1,-1],[1,-1,-1],[-1,1,-1],[1,-1,-1],[-1,1,-1]]","[1,0,2]","[0,2,1]","[0,2,1]","[1,0,2]",0,2,2,2,1,2,,i,0,media/dknb.png,0.057,0.08,,,,1,3,2021-01-08_18h16.05.156,CL_C2S3,2020.1.3,Win32,60,,,,,,,,,,,,,,,,,,,,,,,,,,,,,,,,,,,,,,,,,,,,,,,,,,,,,,,,,,,,,,,,,,
,,,,,,,,,,,,,,,,,,,,1,3,2021-01-08_18h16.05.156,CL_C2S3,2020.1.3,Win32,60,h,14.198635,h,1.01356,i,1,1.324595,2,media/dknb.png,1,"[1,-1,-1]",2,0,Symb,i,RT,0,0,0,1,1,99,99,i,1.324595,1,3,0,0,0,0,1,,,,,,,,,,,,,,,,,,,,,,,,,,,,,,,,,,
,,,,,,,,,,,,,,,,,,,,1,3,2021-01-08_18h16.05.156,CL_C2S3,2020.1.3,Win32,60,,,,,h,1,0.856685,1,media/dfnb.png,1,"[1,-1,-1]",1,1,Symb,h,RT,0,0,1,1,1,99,99,h,0.856685,1,3,1,0,1,0,1,,,,,,,,,,,,,,,,,,,,,,,,,,,,,,,,,,
,,,,,,,,,,,,,,,,,,,,1,3,2021-01-08_18h16.05.156,CL_C2S3,2020.1.3,Win32,60,,,,,h,1,1.22267,0,media/dcnb.png,2,"[-1,1,-1]",3,0,Symb,h,RT,0,0,2,1,1,99,99,h,1.22267,1,3,2,0,2,0,1,,,,,,,,,,,,,,,,,,,,,,,,,,,,,,,,,,
,,,,,,,,,,,,,,,,,,,,1,3,2021-01-08_18h16.05.156,CL_C2S3,2020.1.3,Win32,60,,,,,i,1,1.58692,1,media/dfnb.png,2,"[-1,1,-1]",4,1,Symb,i,RT,0,0,3,1,1,99,99,i,1.58692,1,3,3,0,3,0,1,,,,,,,,,,,,,,,,,,,,,,,,,,,,,,,,,,
,,,,,,,,,,,,,,,,,,,,1,3,2021-01-08_18h16.05.156,CL_C2S3,2020.1.3,Win32,60,,,,,u,1,0.862675,0,media/dcnb.png,1,"[1,-1,-1]",0,0,Symb,u,RT,0,0,4,1,1,99,99,u,0.862675,1,3,4,0,4,0,1,,,,,,,,,,,,,,,,,,,,,,,,,,,,,,,,,,
,,,,,,,,,,,,,,,,,,,,1,3,2021-01-08_18h16.05.156,CL_C2S3,2020.1.3,Win32,60,,,,,h,1,0.740505,0,media/dcnb.png,2,"[-1,1,-1]",3,0,Symb,h,RT,0,0,5,1,1,99,99,h,0.740505,1,3,5,0,5,0,1,,,,,,,,,,,,,,,,,,,,,,,,,,,,,,,,,,
,,,,,,,,,,,,,,,,,,,,1,3,2021-01-08_18h16.05.156,CL_C2S3,2020.1.3,Win32,60,,,,,i,1,0.640835,2,media/dknb.png,1,"[1,-1,-1]",2,0,Symb,i,RT,0,0,6,1,1,99,99,i,0.640835,1,3,6,0,6,0,1,,,,,,,,,,,,,,,,,,,,,,,,,,,,,,,,,,
,,,,,,,,,,,,,,,,,,,,1,3,2021-01-08_18h16.05.156,CL_C2S3,2020.1.3,Win32,60,,,,,u,1,0.866325,0,media/dcnb.png,1,"[1,-1,-1]",0,0,Symb,u,RT,0,0,7,1,1,99,99,u,0.866325,1,3,7,0,7,0,1,,,,,,,,,,,,,,,,,,,,,,,,,,,,,,,,,,
,,,,,,,,,,,,,,,,,,,,1,3,2021-01-08_18h16.05.156,CL_C2S3,2020.1.3,Win32,60,,,,,u,1,0.33632,2,media/dknb.png,2,"[-1,1,-1]",5,0,Symb,u,RT,0,0,8,1,1,99,99,u,0.33632,1,3,8,0,8,0,1,,,,,,,,,,,,,,,,,,,,,,,,,,,,,,,,,,
,,,,,,,,,,,,,,,,,,,,1,3,2021-01-08_18h16.05.156,CL_C2S3,2020.1.3,Win32,60,,,,,i,1,0.855815,1,media/dfnb.png,2,"[-1,1,-1]",4,1,Symb,i,RT,0,0,9,1,1,99,99,i,0.855815,1,3,9,0,9,0,1,,,,,,,,,,,,,,,,,,,,,,,,,,,,,,,,,,
,,,,,,,,,,,,,,,,,,,,1,3,2021-01-08_18h16.05.156,CL_C2S3,2020.1.3,Win32,60,,,,,u,1,0.76988,2,media/dknb.png,2,"[-1,1,-1]",5,0,Symb,u,RT,0,0,10,1,1,99,99,u,0.76988,1,3,10,0,10,0,1,,,,,,,,,,,,,,,,,,,,,,,,,,,,,,,,,,
,,,,,,,,,,,,,,,,,,,,1,3,2021-01-08_18h16.05.156,CL_C2S3,2020.1.3,Win32,60,,,,,i,0,0.833065,1,media/dfnb.png,1,"[1,-1,-1]",1,1,Symb,h,RT,0,0,11,1,1,99,99,i,0.833065,0,3,11,0,11,0,1,,,,,,,,,,,,,,,,,,,,,,,,,,,,,,,,,,
,,,,,,,,,,,,,,,,,,,,1,3,2021-01-08_18h16.05.156,CL_C2S3,2020.1.3,Win32,60,,,,,h,1,0.970355,0,media/dcnb.png,2,"[-1,1,-1]",3,0,Symb,h,RT,0,0,12,1,1,99,99,h,0.970355,1,3,12,0,12,0,1,,,,,,,,,,,,,,,,,,,,,,,,,,,,,,,,,,
,,,,,,,,,,,,,,,,,,,,1,3,2021-01-08_18h16.05.156,CL_C2S3,2020.1.3,Win32,60,,,,,i,0,0.685415,1,media/dfnb.png,1,"[1,-1,-1]",1,1,Symb,h,RT,0,0,13,1,1,99,99,i,0.685415,0,3,13,0,13,0,1,,,,,,,,,,,,,,,,,,,,,,,,,,,,,,,,,,
,,,,,,,,,,,,,,,,,,,,1,3,2021-01-08_18h16.05.156,CL_C2S3,2020.1.3,Win32,60,,,,,h,1,0.54861,1,media/dfnb.png,1,"[1,-1,-1]",1,1,Symb,h,RT,0,0,14,1,1,99,99,h,0.54861,1,3,14,0,14,0,1,,,,,,,,,,,,,,,,,,,,,,,,,,,,,,,,,,
,,,,,,,,,,,,,,,,,,,,1,3,2021-01-08_18h16.05.156,CL_C2S3,2020.1.3,Win32,60,,,,,u,1,0.6274,2,media/dknb.png,2,"[-1,1,-1]",5,0,Symb,u,RT,0,0,15,1,1,99,99,u,0.6274,1,3,15,0,15,0,1,,,,,,,,,,,,,,,,,,,,,,,,,,,,,,,,,,
,,,,,,,,,,,,,,,,,,,,1,3,2021-01-08_18h16.05.156,CL_C2S3,2020.1.3,Win32,60,,,,,u,0,0.40626,2,media/dknb.png,1,"[1,-1,-1]",2,0,Symb,i,RT,0,0,16,1,1,99,99,u,0.40626,0,3,16,0,16,0,1,,,,,,,,,,,,,,,,,,,,,,,,,,,,,,,,,,
,,,,,,,,,,,,,,,,,,,,1,3,2021-01-08_18h16.05.156,CL_C2S3,2020.1.3,Win32,60,,,,,i,1,0.769595,1,media/dfnb.png,2,"[-1,1,-1]",4,1,Symb,i,RT,0,0,17,1,1,99,99,i,0.769595,1,3,17,0,17,0,1,,,,,,,,,,,,,,,,,,,,,,,,,,,,,,,,,,
,,,,,,,,,,,,,,,,,,,,1,3,2021-01-08_18h16.05.156,CL_C2S3,2020.1.3,Win32,60,,,,,u,1,0.686765,0,media/dcnb.png,1,"[1,-1,-1]",0,0,Symb,u,RT,0,0,18,1,1,99,99,u,0.686765,1,3,18,0,18,0,1,,,,,,,,,,,,,,,,,,,,,,,,,,,,,,,,,,
,,,,,,,,,,,,,,,,,,,,1,3,2021-01-08_18h16.05.156,CL_C2S3,2020.1.3,Win32,60,,,,,h,1,0.56329,0,media/dcnb.png,2,"[-1,1,-1]",3,0,Symb,h,RT,0,0,19,1,1,99,99,h,0.56329,1,3,19,0,19,0,1,,,,,,,,,,,,,,,,,,,,,,,,,,,,,,,,,,
,,,,,,,,,,,,,,,,,,,,1,3,2021-01-08_18h16.05.156,CL_C2S3,2020.1.3,Win32,60,,,,,i,1,0.97588,2,media/dknb.png,1,"[1,-1,-1]",2,0,Symb,i,RT,0,0,20,1,1,99,99,i,0.97588,1,3,20,0,20,0,1,,,,,,,,,,,,,,,,,,,,,,,,,,,,,,,,,,
,,,,,,,,,,,,,,,,,,,,1,3,2021-01-08_18h16.05.156,CL_C2S3,2020.1.3,Win32,60,,,,,u,1,0.7764,0,media/dcnb.png,1,"[1,-1,-1]",0,0,Symb,u,RT,0,0,21,1,1,99,99,u,0.7764,1,3,21,0,21,0,1,,,,,,,,,,,,,,,,,,,,,,,,,,,,,,,,,,
,,,,,,,,,,,,,,,,,,,,1,3,2021-01-08_18h16.05.156,CL_C2S3,2020.1.3,Win32,60,,,,,u,1,0.837015,2,media/dknb.png,2,"[-1,1,-1]",5,0,Symb,u,RT,0,0,22,1,1,99,99,u,0.837015,1,3,22,0,22,0,1,,,,,,,,,,,,,,,,,,,,,,,,,,,,,,,,,,
,,,,,,,,,,,,,,,,,,,,1,3,2021-01-08_18h16.05.156,CL_C2S3,2020.1.3,Win32,60,,,,,i,1,1.80654,1,media/dfnb.png,2,"[-1,1,-1]",4,1,Symb,i,RT,0,0,23,1,1,99,99,i,1.80654,1,3,23,0,23,0,1,,,,,,,,,,,,,,,,,,,,,,,,,,,,,,,,,,
,,,,,,,,,,,,,,,,,,,,1,3,2021-01-08_18h16.05.156,CL_C2S3,2020.1.3,Win32,60,,,,,u,0,0.790575,0,media/dcnb.png,2,"[-1,1,-1]",3,0,Symb,h,RT,0,0,24,1,1,99,99,u,0.790575,0,3,24,0,24,0,1,,,,,,,,,,,,,,,,,,,,,,,,,,,,,,,,,,
,,,,,,,,,,,,,,,,,,,,1,3,2021-01-08_18h16.05.156,CL_C2S3,2020.1.3,Win32,60,,,,,i,0,0.86445,1,media/dfnb.png,1,"[1,-1,-1]",1,1,Symb,h,RT,0,0,25,1,1,99,99,i,0.86445,0,3,25,0,25,0,1,,,,,,,,,,,,,,,,,,,,,,,,,,,,,,,,,,
,,,,,,,,,,,,,,,,,,,,1,3,2021-01-08_18h16.05.156,CL_C2S3,2020.1.3,Win32,60,,,,,u,1,0.707875,2,media/dknb.png,2,"[-1,1,-1]",5,0,Symb,u,RT,0,0,26,1,1,99,99,u,0.707875,1,3,26,0,26,0,1,,,,,,,,,,,,,,,,,,,,,,,,,,,,,,,,,,
,,,,,,,,,,,,,,,,,,,,1,3,2021-01-08_18h16.05.156,CL_C2S3,2020.1.3,Win32,60,,,,,i,1,0.61491,2,media/dknb.png,1,"[1,-1,-1]",2,0,Symb,i,RT,0,0,27,1,1,99,99,i,0.61491,1,3,27,0,27,0,1,,,,,,,,,,,,,,,,,,,,,,,,,,,,,,,,,,
,,,,,,,,,,,,,,,,,,,,1,3,2021-01-08_18h16.05.156,CL_C2S3,2020.1.3,Win32,60,,,,,h,0,0.776045,1,media/dfnb.png,2,"[-1,1,-1]",4,1,Symb,i,RT,0,0,28,1,1,99,99,h,0.776045,0,3,28,0,28,0,1,,,,,,,,,,,,,,,,,,,,,,,,,,,,,,,,,,
,,,,,,,,,,,,,,,,,,,,1,3,2021-01-08_18h16.05.156,CL_C2S3,2020.1.3,Win32,60,,,,,u,1,0.55176,0,media/dcnb.png,1,"[1,-1,-1]",0,0,Symb,u,RT,0,0,29,1,1,99,99,u,0.55176,1,3,29,0,29,0,1,,,,,,,,,,,,,,,,,,,,,,,,,,,,,,,,,,
,,,,,,,,,,,,,,,,,,,,1,3,2021-01-08_18h16.05.156,CL_C2S3,2020.1.3,Win32,60,,,,,h,0,0.908845,1,media/dfnb.png,2,"[-1,1,-1]",4,1,Symb,i,RT,0,0,30,1,1,99,99,h,0.908845,0,3,30,0,30,0,1,,,,,,,,,,,,,,,,,,,,,,,,,,,,,,,,,,
,,,,,,,,,,,,,,,,,,,,1,3,2021-01-08_18h16.05.156,CL_C2S3,2020.1.3,Win32,60,,,,,i,1,0.70869,2,media/dknb.png,1,"[1,-1,-1]",2,0,Symb,i,RT,0,0,31,1,1,99,99,i,0.70869,1,3,31,0,31,0,1,,,,,,,,,,,,,,,,,,,,,,,,,,,,,,,,,,
,,,,,,,,,,,,,,,,,,,,1,3,2021-01-08_18h16.05.156,CL_C2S3,2020.1.3,Win32,60,,,,,u,1,0.524625,0,media/dcnb.png,1,"[1,-1,-1]",0,0,Symb,u,RT,0,0,32,1,1,99,99,u,0.524625,1,3,32,0,32,0,1,,,,,,,,,,,,,,,,,,,,,,,,,,,,,,,,,,
,,,,,,,,,,,,,,,,,,,,1,3,2021-01-08_18h16.05.156,CL_C2S3,2020.1.3,Win32,60,,,,,h,1,0.624775,1,media/dfnb.png,1,"[1,-1,-1]",1,1,Symb,h,RT,0,0,33,1,1,99,99,h,0.624775,1,3,33,0,33,0,1,,,,,,,,,,,,,,,,,,,,,,,,,,,,,,,,,,
,,,,,,,,,,,,,,,,,,,,1,3,2021-01-08_18h16.05.156,CL_C2S3,2020.1.3,Win32,60,,,,,h,1,0.86047,0,media/dcnb.png,2,"[-1,1,-1]",3,0,Symb,h,RT,0,0,34,1,1,99,99,h,0.86047,1,3,34,0,34,0,1,,,,,,,,,,,,,,,,,,,,,,,,,,,,,,,,,,
,,,,,,,,,,,,,,,,,,,,1,3,2021-01-08_18h16.05.156,CL_C2S3,2020.1.3,Win32,60,,,,,i,1,0.76889,1,media/dfnb.png,2,"[-1,1,-1]",4,1,Symb,i,RT,0,0,35,1,1,99,99,i,0.76889,1,3,35,0,35,0,1,,,,,,,,,,,,,,,,,,,,,,,,,,,,,,,,,,
,,,,,,,,,,,,,,,,,,,,1,3,2021-01-08_18h16.05.156,CL_C2S3,2020.1.3,Win32,60,,,,,h,1,0.61233,1,media/dfnb.png,1,"[1,-1,-1]",1,1,Symb,h,RT,0,0,36,1,1,99,99,h,0.61233,1,3,36,0,36,0,1,,,,,,,,,,,,,,,,,,,,,,,,,,,,,,,,,,
,,,,,,,,,,,,,,,,,,,,1,3,2021-01-08_18h16.05.156,CL_C2S3,2020.1.3,Win32,60,,,,,u,1,1.38551,2,media/dknb.png,2,"[-1,1,-1]",5,0,Symb,u,RT,0,0,37,1,1,99,99,u,1.38551,1,3,37,0,37,0,1,,,,,,,,,,,,,,,,,,,,,,,,,,,,,,,,,,
,,,,,,,,,,,,,,,,,,,,1,3,2021-01-08_18h16.05.156,CL_C2S3,2020.1.3,Win32,60,,,,,h,1,1.65238,0,media/dcnb.png,2,"[-1,1,-1]",3,0,Symb,h,RT,0,0,38,1,1,99,99,h,1.65238,1,3,38,0,38,0,1,,,,,,,,,,,,,,,,,,,,,,,,,,,,,,,,,,
,,,,,,,,,,,,,,,,,,,,1,3,2021-01-08_18h16.05.156,CL_C2S3,2020.1.3,Win32,60,,,,,u,1,0.76242,2,media/dknb.png,2,"[-1,1,-1]",5,0,Symb,u,RT,0,0,39,1,1,99,99,u,0.76242,1,3,39,0,39,0,1,,,,,,,,,,,,,,,,,,,,,,,,,,,,,,,,,,
,,,,,,,,,,,,,,,,,,,,1,3,2021-01-08_18h16.05.156,CL_C2S3,2020.1.3,Win32,60,,,,,i,1,0.475585,2,media/dknb.png,1,"[1,-1,-1]",2,0,Symb,i,RT,0,0,40,1,1,99,99,i,0.475585,1,3,40,0,40,0,1,,,,,,,,,,,,,,,,,,,,,,,,,,,,,,,,,,
,,,,,,,,,,,,,,,,,,,,1,3,2021-01-08_18h16.05.156,CL_C2S3,2020.1.3,Win32,60,,,,,u,1,0.92809,0,media/dcnb.png,1,"[1,-1,-1]",0,0,Symb,u,RT,0,0,41,1,1,99,99,u,0.92809,1,3,41,0,41,0,1,,,,,,,,,,,,,,,,,,,,,,,,,,,,,,,,,,
,,,,,,,,,,,,,,,,,,,,1,3,2021-01-08_18h16.05.156,CL_C2S3,2020.1.3,Win32,60,,,,,u,1,0.405295,0,media/dcnb.png,1,"[1,-1,-1]",0,0,Symb,u,RT,0,0,42,1,1,99,99,u,0.405295,1,3,42,0,42,0,1,,,,,,,,,,,,,,,,,,,,,,,,,,,,,,,,,,
,,,,,,,,,,,,,,,,,,,,1,3,2021-01-08_18h16.05.156,CL_C2S3,2020.1.3,Win32,60,,,,,u,1,1.11964,2,media/dknb.png,2,"[-1,1,-1]",5,0,Symb,u,RT,0,0,43,1,1,99,99,u,1.11964,1,3,43,0,43,0,1,,,,,,,,,,,,,,,,,,,,,,,,,,,,,,,,,,
,,,,,,,,,,,,,,,,,,,,1,3,2021-01-08_18h16.05.156,CL_C2S3,2020.1.3,Win32,60,,,,,u,1,0.428865,2,media/dknb.png,2,"[-1,1,-1]",5,0,Symb,u,RT,0,0,44,1,1,99,99,u,0.428865,1,3,44,0,44,0,1,,,,,,,,,,,,,,,,,,,,,,,,,,,,,,,,,,
,,,,,,,,,,,,,,,,,,,,1,3,2021-01-08_18h16.05.156,CL_C2S3,2020.1.3,Win32,60,,,,,i,1,0.731115,2,media/dknb.png,1,"[1,-1,-1]",2,0,Symb,i,RT,0,0,45,1,1,99,99,i,0.731115,1,3,45,0,45,0,1,,,,,,,,,,,,,,,,,,,,,,,,,,,,,,,,,,
,,,,,,,,,,,,,,,,,,,,1,3,2021-01-08_18h16.05.156,CL_C2S3,2020.1.3,Win32,60,,,,,h,1,1.29784,0,media/dcnb.png,2,"[-1,1,-1]",3,0,Symb,h,RT,0,0,46,1,1,99,99,h,1.29784,1,3,46,0,46,0,1,,,,,,,,,,,,,,,,,,,,,,,,,,,,,,,,,,
,,,,,,,,,,,,,,,,,,,,1,3,2021-01-08_18h16.05.156,CL_C2S3,2020.1.3,Win32,60,,,,,i,1,0.81975,2,media/dknb.png,1,"[1,-1,-1]",2,0,Symb,i,RT,0,0,47,1,1,99,99,i,0.81975,1,3,47,0,47,0,1,,,,,,,,,,,,,,,,,,,,,,,,,,,,,,,,,,
,,,,,,,,,,,,,,,,,,,,1,3,2021-01-08_18h16.05.156,CL_C2S3,2020.1.3,Win32,60,,,,,i,1,0.994805,1,media/dfnb.png,2,"[-1,1,-1]",4,1,Symb,i,RT,0,0,48,1,1,99,99,i,0.994805,1,3,48,0,48,0,1,,,,,,,,,,,,,,,,,,,,,,,,,,,,,,,,,,
,,,,,,,,,,,,,,,,,,,,1,3,2021-01-08_18h16.05.156,CL_C2S3,2020.1.3,Win32,60,,,,,u,1,0.558795,0,media/dcnb.png,1,"[1,-1,-1]",0,0,Symb,u,RT,0,0,49,1,1,99,99,u,0.558795,1,3,49,0,49,0,1,,,,,,,,,,,,,,,,,,,,,,,,,,,,,,,,,,
,,,,,,,,,,,,,,,,,,,,1,3,2021-01-08_18h16.05.156,CL_C2S3,2020.1.3,Win32,60,,,,,h,0,0.802835,1,media/dfnb.png,2,"[-1,1,-1]",4,1,Symb,i,RT,0,0,50,1,1,99,99,h,0.802835,0,3,50,0,50,0,1,,,,,,,,,,,,,,,,,,,,,,,,,,,,,,,,,,
,,,,,,,,,,,,,,,,,,,,1,3,2021-01-08_18h16.05.156,CL_C2S3,2020.1.3,Win32,60,,,,,h,1,0.88837,0,media/dcnb.png,2,"[-1,1,-1]",3,0,Symb,h,RT,0,0,51,1,1,99,99,h,0.88837,1,3,51,0,51,0,1,,,,,,,,,,,,,,,,,,,,,,,,,,,,,,,,,,
,,,,,,,,,,,,,,,,,,,,1,3,2021-01-08_18h16.05.156,CL_C2S3,2020.1.3,Win32,60,,,,,h,1,0.822525,1,media/dfnb.png,1,"[1,-1,-1]",1,1,Symb,h,RT,0,0,52,1,1,99,99,h,0.822525,1,3,52,0,52,0,1,,,,,,,,,,,,,,,,,,,,,,,,,,,,,,,,,,
,,,,,,,,,,,,,,,,,,,,1,3,2021-01-08_18h16.05.156,CL_C2S3,2020.1.3,Win32,60,,,,,h,1,0.49218,1,media/dfnb.png,1,"[1,-1,-1]",1,1,Symb,h,RT,0,0,53,1,1,99,99,h,0.49218,1,3,53,0,53,0,1,,,,,,,,,,,,,,,,,,,,,,,,,,,,,,,,,,
,,,,,,,,,,,,,,,,,,,,1,3,2021-01-08_18h16.05.156,CL_C2S3,2020.1.3,Win32,60,,,,,h,1,0.412085,1,media/dfnb.png,1,"[1,-1,-1]",1,1,Symb,h,RT,0,0,54,1,1,99,99,h,0.412085,1,3,54,0,54,0,1,,,,,,,,,,,,,,,,,,,,,,,,,,,,,,,,,,
,,,,,,,,,,,,,,,,,,,,1,3,2021-01-08_18h16.05.156,CL_C2S3,2020.1.3,Win32,60,,,,,h,1,3.61184,0,media/dcnb.png,2,"[-1,1,-1]",3,0,Symb,h,RT,0,0,55,1,1,99,99,h,3.61184,1,3,55,0,55,0,1,,,,,,,,,,,,,,,,,,,,,,,,,,,,,,,,,,
,,,,,,,,,,,,,,,,,,,,1,3,2021-01-08_18h16.05.156,CL_C2S3,2020.1.3,Win32,60,,,,,i,1,1.152765,1,media/dfnb.png,2,"[-1,1,-1]",4,1,Symb,i,RT,0,0,56,1,1,99,99,i,1.152765,1,3,56,0,56,0,1,,,,,,,,,,,,,,,,,,,,,,,,,,,,,,,,,,
,,,,,,,,,,,,,,,,,,,,1,3,2021-01-08_18h16.05.156,CL_C2S3,2020.1.3,Win32,60,,,,,u,1,3.766705,0,media/dcnb.png,1,"[1,-1,-1]",0,0,Symb,u,RT,0,0,57,1,1,99,99,u,3.766705,1,3,57,0,57,0,1,,,,,,,,,,,,,,,,,,,,,,,,,,,,,,,,,,
,,,,,,,,,,,,,,,,,,,,1,3,2021-01-08_18h16.05.156,CL_C2S3,2020.1.3,Win32,60,,,,,i,1,0.57135,2,media/dknb.png,1,"[1,-1,-1]",2,0,Symb,i,RT,0,0,58,1,1,99,99,i,0.57135,1,3,58,0,58,0,1,,,,,,,,,,,,,,,,,,,,,,,,,,,,,,,,,,
,,,,,,,,,,,,,,,,,,,,1,3,2021-01-08_18h16.05.156,CL_C2S3,2020.1.3,Win32,60,,,,,u,1,0.496775,2,media/dknb.png,2,"[-1,1,-1]",5,0,Symb,u,RT,0,0,59,1,1,99,99,u,0.496775,1,3,59,0,59,0,1,,,,,,,,,,,,,,,,,,,,,,,,,,,,,,,,,,
,,,,,,,,,,,,,,,,,,,,1,3,2021-01-08_18h16.05.156,CL_C2S3,2020.1.3,Win32,60,,,,,u,1,0.5942,2,media/dknb.png,2,"[-1,1,-1]",5,0,Symb,u,RT,0,0,60,1,1,99,99,u,0.5942,1,3,60,0,60,0,1,,,,,,,,,,,,,,,,,,,,,,,,,,,,,,,,,,
,,,,,,,,,,,,,,,,,,,,1,3,2021-01-08_18h16.05.156,CL_C2S3,2020.1.3,Win32,60,,,,,i,1,0.48294,2,media/dknb.png,1,"[1,-1,-1]",2,0,Symb,i,RT,0,0,61,1,1,99,99,i,0.48294,1,3,61,0,61,0,1,,,,,,,,,,,,,,,,,,,,,,,,,,,,,,,,,,
,,,,,,,,,,,,,,,,,,,,1,3,2021-01-08_18h16.05.156,CL_C2S3,2020.1.3,Win32,60,,,,,i,0,0.643255,2,media/dknb.png,2,"[-1,1,-1]",5,0,Symb,u,RT,0,0,62,1,1,99,99,i,0.643255,0,3,62,0,62,0,1,,,,,,,,,,,,,,,,,,,,,,,,,,,,,,,,,,
,,,,,,,,,,,,,,,,,,,,1,3,2021-01-08_18h16.05.156,CL_C2S3,2020.1.3,Win32,60,,,,,h,1,0.721975,1,media/dfnb.png,1,"[1,-1,-1]",1,1,Symb,h,RT,0,0,63,1,1,99,99,h,0.721975,1,3,63,0,63,0,1,,,,,,,,,,,,,,,,,,,,,,,,,,,,,,,,,,
,,,,,,,,,,,,,,,,,,,,1,3,2021-01-08_18h16.05.156,CL_C2S3,2020.1.3,Win32,60,,,,,i,1,0.69139,1,media/dfnb.png,2,"[-1,1,-1]",4,1,Symb,i,RT,0,0,64,1,1,99,99,i,0.69139,1,3,64,0,64,0,1,,,,,,,,,,,,,,,,,,,,,,,,,,,,,,,,,,
,,,,,,,,,,,,,,,,,,,,1,3,2021-01-08_18h16.05.156,CL_C2S3,2020.1.3,Win32,60,,,,,u,1,0.68073,0,media/dcnb.png,1,"[1,-1,-1]",0,0,Symb,u,RT,0,0,65,1,1,99,99,u,0.68073,1,3,65,0,65,0,1,,,,,,,,,,,,,,,,,,,,,,,,,,,,,,,,,,
,,,,,,,,,,,,,,,,,,,,1,3,2021-01-08_18h16.05.156,CL_C2S3,2020.1.3,Win32,60,,,,,h,1,1.745775,1,media/dfnb.png,1,"[1,-1,-1]",1,1,Symb,h,RT,0,0,66,1,1,99,99,h,1.745775,1,3,66,0,66,0,1,,,,,,,,,,,,,,,,,,,,,,,,,,,,,,,,,,
,,,,,,,,,,,,,,,,,,,,1,3,2021-01-08_18h16.05.156,CL_C2S3,2020.1.3,Win32,60,,,,,i,1,0.90348,2,media/dknb.png,1,"[1,-1,-1]",2,0,Symb,i,RT,0,0,67,1,1,99,99,i,0.90348,1,3,67,0,67,0,1,,,,,,,,,,,,,,,,,,,,,,,,,,,,,,,,,,
,,,,,,,,,,,,,,,,,,,,1,3,2021-01-08_18h16.05.156,CL_C2S3,2020.1.3,Win32,60,,,,,i,1,1.287025,1,media/dfnb.png,2,"[-1,1,-1]",4,1,Symb,i,RT,0,0,68,1,1,99,99,i,1.287025,1,3,68,0,68,0,1,,,,,,,,,,,,,,,,,,,,,,,,,,,,,,,,,,
,,,,,,,,,,,,,,,,,,,,1,3,2021-01-08_18h16.05.156,CL_C2S3,2020.1.3,Win32,60,,,,,h,1,1.71616,0,media/dcnb.png,2,"[-1,1,-1]",3,0,Symb,h,RT,0,0,69,1,1,99,99,h,1.71616,1,3,69,0,69,0,1,,,,,,,,,,,,,,,,,,,,,,,,,,,,,,,,,,
,,,,,,,,,,,,,,,,,,,,1,3,2021-01-08_18h16.05.156,CL_C2S3,2020.1.3,Win32,60,,,,,u,1,0.88642,0,media/dcnb.png,1,"[1,-1,-1]",0,0,Symb,u,RT,0,0,70,1,1,99,99,u,0.88642,1,3,70,0,70,0,1,,,,,,,,,,,,,,,,,,,,,,,,,,,,,,,,,,
,,,,,,,,,,,,,,,,,,,,1,3,2021-01-08_18h16.05.156,CL_C2S3,2020.1.3,Win32,60,,,,,h,1,0.75203,0,media/dcnb.png,2,"[-1,1,-1]",3,0,Symb,h,RT,0,0,71,1,1,99,99,h,0.75203,1,3,71,0,71,0,1,,,,,,,,,,,,,,,,,,,,,,,,,,,,,,,,,,
,,,,,,,,,,,,,,,,,,,,1,3,2021-01-08_18h16.05.156,CL_C2S3,2020.1.3,Win32,60,,,,,u,1,1.03404,0,media/dcnb.png,1,"[1,-1,-1]",0,0,Symb,u,RT,0,0,72,1,1,99,99,u,1.03404,1,3,72,0,72,0,1,,,,,,,,,,,,,,,,,,,,,,,,,,,,,,,,,,
,,,,,,,,,,,,,,,,,,,,1,3,2021-01-08_18h16.05.156,CL_C2S3,2020.1.3,Win32,60,,,,,h,1,1.053215,1,media/dfnb.png,1,"[1,-1,-1]",1,1,Symb,h,RT,0,0,73,1,1,99,99,h,1.053215,1,3,73,0,73,0,1,,,,,,,,,,,,,,,,,,,,,,,,,,,,,,,,,,
,,,,,,,,,,,,,,,,,,,,1,3,2021-01-08_18h16.05.156,CL_C2S3,2020.1.3,Win32,60,,,,,u,1,0.768715,2,media/dknb.png,2,"[-1,1,-1]",5,0,Symb,u,RT,0,0,74,1,1,99,99,u,0.768715,1,3,74,0,74,0,1,,,,,,,,,,,,,,,,,,,,,,,,,,,,,,,,,,
,,,,,,,,,,,,,,,,,,,,1,3,2021-01-08_18h16.05.156,CL_C2S3,2020.1.3,Win32,60,,,,,h,1,0.779275,0,media/dcnb.png,2,"[-1,1,-1]",3,0,Symb,h,RT,0,0,75,1,1,99,99,h,0.779275,1,3,75,0,75,0,1,,,,,,,,,,,,,,,,,,,,,,,,,,,,,,,,,,
,,,,,,,,,,,,,,,,,,,,1,3,2021-01-08_18h16.05.156,CL_C2S3,2020.1.3,Win32,60,,,,,i,1,0.52804,2,media/dknb.png,1,"[1,-1,-1]",2,0,Symb,i,RT,0,0,76,1,1,99,99,i,0.52804,1,3,76,0,76,0,1,,,,,,,,,,,,,,,,,,,,,,,,,,,,,,,,,,
,,,,,,,,,,,,,,,,,,,,1,3,2021-01-08_18h16.05.156,CL_C2S3,2020.1.3,Win32,60,,,,,i,0,0.54591,2,media/dknb.png,2,"[-1,1,-1]",5,0,Symb,u,RT,0,0,77,1,1,99,99,i,0.54591,0,3,77,0,77,0,1,,,,,,,,,,,,,,,,,,,,,,,,,,,,,,,,,,
,,,,,,,,,,,,,,,,,,,,1,3,2021-01-08_18h16.05.156,CL_C2S3,2020.1.3,Win32,60,,,,,i,1,2.08248,2,media/dknb.png,1,"[1,-1,-1]",2,0,Symb,i,RT,0,0,78,1,1,99,99,i,2.08248,1,3,78,0,78,0,1,,,,,,,,,,,,,,,,,,,,,,,,,,,,,,,,,,
,,,,,,,,,,,,,,,,,,,,1,3,2021-01-08_18h16.05.156,CL_C2S3,2020.1.3,Win32,60,,,,,i,1,0.93902,1,media/dfnb.png,2,"[-1,1,-1]",4,1,Symb,i,RT,0,0,79,1,1,99,99,i,0.93902,1,3,79,0,79,0,1,,,,,,,,,,,,,,,,,,,,,,,,,,,,,,,,,,
,,,,,,,,,,,,,,,,,,,,1,3,2021-01-08_18h16.05.156,CL_C2S3,2020.1.3,Win32,60,,,,,h,1,0.877355,0,media/dcnb.png,2,"[-1,1,-1]",3,0,Symb,h,RT,0,0,80,1,1,99,99,h,0.877355,1,3,80,0,80,0,1,,,,,,,,,,,,,,,,,,,,,,,,,,,,,,,,,,
,,,,,,,,,,,,,,,,,,,,1,3,2021-01-08_18h16.05.156,CL_C2S3,2020.1.3,Win32,60,,,,,u,1,0.81976,0,media/dcnb.png,1,"[1,-1,-1]",0,0,Symb,u,RT,0,0,81,1,1,99,99,u,0.81976,1,3,81,0,81,0,1,,,,,,,,,,,,,,,,,,,,,,,,,,,,,,,,,,
,,,,,,,,,,,,,,,,,,,,1,3,2021-01-08_18h16.05.156,CL_C2S3,2020.1.3,Win32,60,,,,,h,1,0.686595,1,media/dfnb.png,1,"[1,-1,-1]",1,1,Symb,h,RT,0,0,82,1,1,99,99,h,0.686595,1,3,82,0,82,0,1,,,,,,,,,,,,,,,,,,,,,,,,,,,,,,,,,,
,,,,,,,,,,,,,,,,,,,,1,3,2021-01-08_18h16.05.156,CL_C2S3,2020.1.3,Win32,60,,,,,i,1,0.826365,1,media/dfnb.png,2,"[-1,1,-1]",4,1,Symb,i,RT,0,0,83,1,1,99,99,i,0.826365,1,3,83,0,83,0,1,,,,,,,,,,,,,,,,,,,,,,,,,,,,,,,,,,
,,,,,,,,,,,,,,,,,,,,1,3,2021-01-08_18h16.05.156,CL_C2S3,2020.1.3,Win32,60,,,,,h,1,0.5318,1,media/dfnb.png,1,"[1,-1,-1]",1,1,Symb,h,RT,0,0,84,1,1,99,99,h,0.5318,1,3,84,0,84,0,1,,,,,,,,,,,,,,,,,,,,,,,,,,,,,,,,,,
,,,,,,,,,,,,,,,,,,,,1,3,2021-01-08_18h16.05.156,CL_C2S3,2020.1.3,Win32,60,,,,,i,1,0.76956,1,media/dfnb.png,2,"[-1,1,-1]",4,1,Symb,i,RT,0,0,85,1,1,99,99,i,0.76956,1,3,85,0,85,0,1,,,,,,,,,,,,,,,,,,,,,,,,,,,,,,,,,,
,,,,,,,,,,,,,,,,,,,,1,3,2021-01-08_18h16.05.156,CL_C2S3,2020.1.3,Win32,60,,,,,u,1,0.64363,0,media/dcnb.png,1,"[1,-1,-1]",0,0,Symb,u,RT,0,0,86,1,1,99,99,u,0.64363,1,3,86,0,86,0,1,,,,,,,,,,,,,,,,,,,,,,,,,,,,,,,,,,
,,,,,,,,,,,,,,,,,,,,1,3,2021-01-08_18h16.05.156,CL_C2S3,2020.1.3,Win32,60,,,,,u,1,0.697415,2,media/dknb.png,2,"[-1,1,-1]",5,0,Symb,u,RT,0,0,87,1,1,99,99,u,0.697415,1,3,87,0,87,0,1,,,,,,,,,,,,,,,,,,,,,,,,,,,,,,,,,,
,,,,,,,,,,,,,,,,,,,,1,3,2021-01-08_18h16.05.156,CL_C2S3,2020.1.3,Win32,60,,,,,h,1,0.675155,0,media/dcnb.png,2,"[-1,1,-1]",3,0,Symb,h,RT,0,0,88,1,1,99,99,h,0.675155,1,3,88,0,88,0,1,,,,,,,,,,,,,,,,,,,,,,,,,,,,,,,,,,
,,,,,,,,,,,,,,,,,,,,1,3,2021-01-08_18h16.05.156,CL_C2S3,2020.1.3,Win32,60,,,,,i,1,0.54288,2,media/dknb.png,1,"[1,-1,-1]",2,0,Symb,i,RT,0,0,89,1,1,99,99,i,0.54288,1,3,89,0,89,0,1,,,,,,,,,,,,,,,,,,,,,,,,,,,,,,,,,,
,,,,,,,,,,,,,,,,,,,,1,3,2021-01-08_18h16.05.156,CL_C2S3,2020.1.3,Win32,60,,,,,h,1,0.893915,0,media/dcnb.png,2,"[-1,1,-1]",3,0,Symb,h,RT,0,0,90,1,1,99,99,h,0.893915,1,3,90,0,90,0,1,,,,,,,,,,,,,,,,,,,,,,,,,,,,,,,,,,
,,,,,,,,,,,,,,,,,,,,1,3,2021-01-08_18h16.05.156,CL_C2S3,2020.1.3,Win32,60,,,,,h,1,0.65584,1,media/dfnb.png,1,"[1,-1,-1]",1,1,Symb,h,RT,0,0,91,1,1,99,99,h,0.65584,1,3,91,0,91,0,1,,,,,,,,,,,,,,,,,,,,,,,,,,,,,,,,,,
,,,,,,,,,,,,,,,,,,,,1,3,2021-01-08_18h16.05.156,CL_C2S3,2020.1.3,Win32,60,,,,,u,0,0.530325,2,media/dknb.png,1,"[1,-1,-1]",2,0,Symb,i,RT,0,0,92,1,1,99,99,u,0.530325,0,3,92,0,92,0,1,,,,,,,,,,,,,,,,,,,,,,,,,,,,,,,,,,
,,,,,,,,,,,,,,,,,,,,1,3,2021-01-08_18h16.05.156,CL_C2S3,2020.1.3,Win32,60,,,,,h,0,0.74284,0,media/dcnb.png,1,"[1,-1,-1]",0,0,Symb,u,RT,0,0,93,1,1,99,99,h,0.74284,0,3,93,0,93,0,1,,,,,,,,,,,,,,,,,,,,,,,,,,,,,,,,,,
,,,,,,,,,,,,,,,,,,,,1,3,2021-01-08_18h16.05.156,CL_C2S3,2020.1.3,Win32,60,,,,,u,0,0.62512,2,media/dknb.png,1,"[1,-1,-1]",2,0,Symb,i,RT,0,0,94,1,1,99,99,u,0.62512,0,3,94,0,94,0,1,,,,,,,,,,,,,,,,,,,,,,,,,,,,,,,,,,
,,,,,,,,,,,,,,,,,,,,1,3,2021-01-08_18h16.05.156,CL_C2S3,2020.1.3,Win32,60,,,,,u,1,0.66452,0,media/dcnb.png,1,"[1,-1,-1]",0,0,Symb,u,RT,0,0,95,1,1,99,99,u,0.66452,1,3,95,0,95,0,1,,,,,,,,,,,,,,,,,,,,,,,,,,,,,,,,,,
,,,,,,,,,,,,,,,,,,,,1,3,2021-01-08_18h16.05.156,CL_C2S3,2020.1.3,Win32,60,,,,,h,1,0.768535,0,media/dcnb.png,2,"[-1,1,-1]",3,0,Symb,h,RT,0,0,96,1,1,99,99,h,0.768535,1,3,96,0,96,0,1,,,,,,,,,,,,,,,,,,,,,,,,,,,,,,,,,,
,,,,,,,,,,,,,,,,,,,,1,3,2021-01-08_18h16.05.156,CL_C2S3,2020.1.3,Win32,60,,,,,h,1,0.597995,1,media/dfnb.png,1,"[1,-1,-1]",1,1,Symb,h,RT,0,0,97,1,1,99,99,h,0.597995,1,3,97,0,97,0,1,,,,,,,,,,,,,,,,,,,,,,,,,,,,,,,,,,
,,,,,,,,,,,,,,,,,,,,1,3,2021-01-08_18h16.05.156,CL_C2S3,2020.1.3,Win32,60,,,,,i,0,0.625085,2,media/dknb.png,2,"[-1,1,-1]",5,0,Symb,u,RT,0,0,98,1,1,99,99,i,0.625085,0,3,98,0,98,0,1,,,,,,,,,,,,,,,,,,,,,,,,,,,,,,,,,,
,,,,,,,,,,,,,,,,,,,,1,3,2021-01-08_18h16.05.156,CL_C2S3,2020.1.3,Win32,60,,,,,u,1,0.49906,2,media/dknb.png,2,"[-1,1,-1]",5,0,Symb,u,RT,0,0,99,1,1,99,99,u,0.49906,1,3,99,0,99,0,1,,,,,,,,,,,,,,,,,,,,,,,,,,,,,,,,,,
,,,,,,,,,,,,,,,,,,,,1,3,2021-01-08_18h16.05.156,CL_C2S3,2020.1.3,Win32,60,,,,,i,1,0.817955,1,media/dfnb.png,2,"[-1,1,-1]",4,1,Symb,i,RT,0,0,100,1,1,99,99,i,0.817955,1,3,100,0,100,0,1,,,,,,,,,,,,,,,,,,,,,,,,,,,,,,,,,,
,,,,,,,,,,,,,,,,,,,,1,3,2021-01-08_18h16.05.156,CL_C2S3,2020.1.3,Win32,60,,,,,i,1,0.381475,1,media/dfnb.png,2,"[-1,1,-1]",4,1,Symb,i,RT,0,0,101,1,1,99,99,i,0.381475,1,3,101,0,101,0,1,,,,,,,,,,,,,,,,,,,,,,,,,,,,,,,,,,
,,,,,,,,,,,,,,,,,,,,1,3,2021-01-08_18h16.05.156,CL_C2S3,2020.1.3,Win32,60,,,,,u,1,0.69032,0,media/dcnb.png,1,"[1,-1,-1]",0,0,Symb,u,RT,0,0,102,1,1,99,99,u,0.69032,1,3,102,0,102,0,1,,,,,,,,,,,,,,,,,,,,,,,,,,,,,,,,,,
,,,,,,,,,,,,,,,,,,,,1,3,2021-01-08_18h16.05.156,CL_C2S3,2020.1.3,Win32,60,,,,,i,1,0.81574,1,media/dfnb.png,2,"[-1,1,-1]",4,1,Symb,i,RT,0,0,103,1,1,99,99,i,0.81574,1,3,103,0,103,0,1,,,,,,,,,,,,,,,,,,,,,,,,,,,,,,,,,,
,,,,,,,,,,,,,,,,,,,,1,3,2021-01-08_18h16.05.156,CL_C2S3,2020.1.3,Win32,60,,,,,h,1,0.681935,0,media/dcnb.png,2,"[-1,1,-1]",3,0,Symb,h,RT,0,0,104,1,1,99,99,h,0.681935,1,3,104,0,104,0,1,,,,,,,,,,,,,,,,,,,,,,,,,,,,,,,,,,
,,,,,,,,,,,,,,,,,,,,1,3,2021-01-08_18h16.05.156,CL_C2S3,2020.1.3,Win32,60,,,,,u,1,0.61023,0,media/dcnb.png,1,"[1,-1,-1]",0,0,Symb,u,RT,0,0,105,1,1,99,99,u,0.61023,1,3,105,0,105,0,1,,,,,,,,,,,,,,,,,,,,,,,,,,,,,,,,,,
,,,,,,,,,,,,,,,,,,,,1,3,2021-01-08_18h16.05.156,CL_C2S3,2020.1.3,Win32,60,,,,,u,1,1.31233,2,media/dknb.png,2,"[-1,1,-1]",5,0,Symb,u,RT,0,0,106,1,1,99,99,u,1.31233,1,3,106,0,106,0,1,,,,,,,,,,,,,,,,,,,,,,,,,,,,,,,,,,
,,,,,,,,,,,,,,,,,,,,1,3,2021-01-08_18h16.05.156,CL_C2S3,2020.1.3,Win32,60,,,,,i,1,0.77265,2,media/dknb.png,1,"[1,-1,-1]",2,0,Symb,i,RT,0,0,107,1,1,99,99,i,0.77265,1,3,107,0,107,0,1,,,,,,,,,,,,,,,,,,,,,,,,,,,,,,,,,,
,,,,,,,,,,,,,,,,,,,,1,3,2021-01-08_18h16.05.156,CL_C2S3,2020.1.3,Win32,60,,,,,i,1,0.36715,2,media/dknb.png,1,"[1,-1,-1]",2,0,Symb,i,RT,0,0,108,1,1,99,99,i,0.36715,1,3,108,0,108,0,1,,,,,,,,,,,,,,,,,,,,,,,,,,,,,,,,,,
,,,,,,,,,,,,,,,,,,,,1,3,2021-01-08_18h16.05.156,CL_C2S3,2020.1.3,Win32,60,,,,,h,1,0.65843,1,media/dfnb.png,1,"[1,-1,-1]",1,1,Symb,h,RT,0,0,109,1,1,99,99,h,0.65843,1,3,109,0,109,0,1,,,,,,,,,,,,,,,,,,,,,,,,,,,,,,,,,,
,,,,,,,,,,,,,,,,,,,,1,3,2021-01-08_18h16.05.156,CL_C2S3,2020.1.3,Win32,60,,,,,h,1,1.12603,0,media/dcnb.png,2,"[-1,1,-1]",3,0,Symb,h,RT,0,0,110,1,1,99,99,h,1.12603,1,3,110,0,110,0,1,,,,,,,,,,,,,,,,,,,,,,,,,,,,,,,,,,
,,,,,,,,,,,,,,,,,,,,1,3,2021-01-08_18h16.05.156,CL_C2S3,2020.1.3,Win32,60,,,,,u,1,0.84893,2,media/dknb.png,2,"[-1,1,-1]",5,0,Symb,u,RT,0,0,111,1,1,99,99,u,0.84893,1,3,111,0,111,0,1,,,,,,,,,,,,,,,,,,,,,,,,,,,,,,,,,,
,,,,,,,,,,,,,,,,,,,,1,3,2021-01-08_18h16.05.156,CL_C2S3,2020.1.3,Win32,60,,,,,h,1,0.957845,1,media/dfnb.png,1,"[1,-1,-1]",1,1,Symb,h,RT,0,0,112,1,1,99,99,h,0.957845,1,3,112,0,112,0,1,,,,,,,,,,,,,,,,,,,,,,,,,,,,,,,,,,
,,,,,,,,,,,,,,,,,,,,1,3,2021-01-08_18h16.05.156,CL_C2S3,2020.1.3,Win32,60,,,,,i,1,1.84146,1,media/dfnb.png,2,"[-1,1,-1]",4,1,Symb,i,RT,0,0,113,1,1,99,99,i,1.84146,1,3,113,0,113,0,1,,,,,,,,,,,,,,,,,,,,,,,,,,,,,,,,,,
,,,,,,,,,,,,,,,,,,,,1,3,2021-01-08_18h16.05.156,CL_C2S3,2020.1.3,Win32,60,,,,,u,1,1.895845,0,media/dcnb.png,1,"[1,-1,-1]",0,0,Symb,u,RT,0,0,114,1,1,99,99,u,1.895845,1,3,114,0,114,0,1,,,,,,,,,,,,,,,,,,,,,,,,,,,,,,,,,,
,,,,,,,,,,,,,,,,,,,,1,3,2021-01-08_18h16.05.156,CL_C2S3,2020.1.3,Win32,60,,,,,h,0,1.71047,1,media/dfnb.png,2,"[-1,1,-1]",4,1,Symb,i,RT,0,0,115,1,1,99,99,h,1.71047,0,3,115,0,115,0,1,,,,,,,,,,,,,,,,,,,,,,,,,,,,,,,,,,
,,,,,,,,,,,,,,,,,,,,1,3,2021-01-08_18h16.05.156,CL_C2S3,2020.1.3,Win32,60,,,,,u,1,0.78058,2,media/dknb.png,2,"[-1,1,-1]",5,0,Symb,u,RT,0,0,116,1,1,99,99,u,0.78058,1,3,116,0,116,0,1,,,,,,,,,,,,,,,,,,,,,,,,,,,,,,,,,,
,,,,,,,,,,,,,,,,,,,,1,3,2021-01-08_18h16.05.156,CL_C2S3,2020.1.3,Win32,60,,,,,h,1,1.187475,1,media/dfnb.png,1,"[1,-1,-1]",1,1,Symb,h,RT,0,0,117,1,1,99,99,h,1.187475,1,3,117,0,117,0,1,,,,,,,,,,,,,,,,,,,,,,,,,,,,,,,,,,
,,,,,,,,,,,,,,,,,,,,1,3,2021-01-08_18h16.05.156,CL_C2S3,2020.1.3,Win32,60,,,,,i,1,3.97655,2,media/dknb.png,1,"[1,-1,-1]",2,0,Symb,i,RT,0,0,118,1,1,99,99,i,3.97655,1,3,118,0,118,0,1,,,,,,,,,,,,,,,,,,,,,,,,,,,,,,,,,,
,,,,,,,,,,,,,,,,,,,,1,3,2021-01-08_18h16.05.156,CL_C2S3,2020.1.3,Win32,60,,,,,h,1,1.537895,0,media/dcnb.png,2,"[-1,1,-1]",3,0,Symb,h,RT,0,0,119,1,1,99,99,h,1.537895,1,3,119,0,119,0,1,,,,,,,,,,,,,,,,,,,,,,,,,,,,,,,,,,
,,,,,,,,,,,,,,,,,,,,1,3,2021-01-08_18h16.05.156,CL_C2S3,2020.1.3,Win32,60,,,,,,,,,,,,,,,,,,,,,,,,,,,,,,,,,0,0,0,0,1,,,,,,,,,,,,,,,,,,,,,,,,,,,,,
,,,,,,,,,,,,,,,,,,,,1,3,2021-01-08_18h16.05.156,CL_C2S3,2020.1.3,Win32,60,,,h,18.38054,u,1,0.791045,0,media/dcnb.png,1,"[1,-1,-1]",0,0,Symb,u,RT,0,0,0,1,2,99,99,u,0.791045,1,3,0,0,0,0,1,,,,,,,,,,,,,,,,,,,,,,,,,,,,,,,,,,
,,,,,,,,,,,,,,,,,,,,1,3,2021-01-08_18h16.05.156,CL_C2S3,2020.1.3,Win32,60,,,,,u,1,0.824525,2,media/dknb.png,2,"[-1,1,-1]",5,0,Symb,u,RT,0,0,1,1,2,99,99,u,0.824525,1,3,1,0,1,0,1,,,,,,,,,,,,,,,,,,,,,,,,,,,,,,,,,,
,,,,,,,,,,,,,,,,,,,,1,3,2021-01-08_18h16.05.156,CL_C2S3,2020.1.3,Win32,60,,,,,u,1,0.362615,2,media/dknb.png,2,"[-1,1,-1]",5,0,Symb,u,RT,0,0,2,1,2,99,99,u,0.362615,1,3,2,0,2,0,1,,,,,,,,,,,,,,,,,,,,,,,,,,,,,,,,,,
,,,,,,,,,,,,,,,,,,,,1,3,2021-01-08_18h16.05.156,CL_C2S3,2020.1.3,Win32,60,,,,,u,0,0.38972,2,media/dknb.png,1,"[1,-1,-1]",2,0,Symb,i,RT,0,0,3,1,2,99,99,u,0.38972,0,3,3,0,3,0,1,,,,,,,,,,,,,,,,,,,,,,,,,,,,,,,,,,
,,,,,,,,,,,,,,,,,,,,1,3,2021-01-08_18h16.05.156,CL_C2S3,2020.1.3,Win32,60,,,,,h,1,0.73275,0,media/dcnb.png,2,"[-1,1,-1]",3,0,Symb,h,RT,0,0,4,1,2,99,99,h,0.73275,1,3,4,0,4,0,1,,,,,,,,,,,,,,,,,,,,,,,,,,,,,,,,,,
,,,,,,,,,,,,,,,,,,,,1,3,2021-01-08_18h16.05.156,CL_C2S3,2020.1.3,Win32,60,,,,,u,1,0.481845,0,media/dcnb.png,1,"[1,-1,-1]",0,0,Symb,u,RT,0,0,5,1,2,99,99,u,0.481845,1,3,5,0,5,0,1,,,,,,,,,,,,,,,,,,,,,,,,,,,,,,,,,,
,,,,,,,,,,,,,,,,,,,,1,3,2021-01-08_18h16.05.156,CL_C2S3,2020.1.3,Win32,60,,,,,h,1,0.65648,1,media/dfnb.png,1,"[1,-1,-1]",1,1,Symb,h,RT,0,0,6,1,2,99,99,h,0.65648,1,3,6,0,6,0,1,,,,,,,,,,,,,,,,,,,,,,,,,,,,,,,,,,
,,,,,,,,,,,,,,,,,,,,1,3,2021-01-08_18h16.05.156,CL_C2S3,2020.1.3,Win32,60,,,,,i,1,0.57205,1,media/dfnb.png,2,"[-1,1,-1]",4,1,Symb,i,RT,0,0,7,1,2,99,99,i,0.57205,1,3,7,0,7,0,1,,,,,,,,,,,,,,,,,,,,,,,,,,,,,,,,,,
,,,,,,,,,,,,,,,,,,,,1,3,2021-01-08_18h16.05.156,CL_C2S3,2020.1.3,Win32,60,,,,,i,1,0.33324,1,media/dfnb.png,2,"[-1,1,-1]",4,1,Symb,i,RT,0,0,8,1,2,99,99,i,0.33324,1,3,8,0,8,0,1,,,,,,,,,,,,,,,,,,,,,,,,,,,,,,,,,,
,,,,,,,,,,,,,,,,,,,,1,3,2021-01-08_18h16.05.156,CL_C2S3,2020.1.3,Win32,60,,,,,h,1,0.676325,1,media/dfnb.png,1,"[1,-1,-1]",1,1,Symb,h,RT,0,0,9,1,2,99,99,h,0.676325,1,3,9,0,9,0,1,,,,,,,,,,,,,,,,,,,,,,,,,,,,,,,,,,
,,,,,,,,,,,,,,,,,,,,1,3,2021-01-08_18h16.05.156,CL_C2S3,2020.1.3,Win32,60,,,,,i,1,1.11597,2,media/dknb.png,1,"[1,-1,-1]",2,0,Symb,i,RT,0,0,10,1,2,99,99,i,1.11597,1,3,10,0,10,0,1,,,,,,,,,,,,,,,,,,,,,,,,,,,,,,,,,,
,,,,,,,,,,,,,,,,,,,,1,3,2021-01-08_18h16.05.156,CL_C2S3,2020.1.3,Win32,60,,,,,h,1,2.80224,0,media/dcnb.png,2,"[-1,1,-1]",3,0,Symb,h,RT,0,0,11,1,2,99,99,h,2.80224,1,3,11,0,11,0,1,,,,,,,,,,,,,,,,,,,,,,,,,,,,,,,,,,
,,,,,,,,,,,,,,,,,,,,1,3,2021-01-08_18h16.05.156,CL_C2S3,2020.1.3,Win32,60,,,,,i,1,1.08086,1,media/dfnb.png,2,"[-1,1,-1]",4,1,Symb,i,RT,0,0,12,1,2,99,99,i,1.08086,1,3,12,0,12,0,1,,,,,,,,,,,,,,,,,,,,,,,,,,,,,,,,,,
,,,,,,,,,,,,,,,,,,,,1,3,2021-01-08_18h16.05.156,CL_C2S3,2020.1.3,Win32,60,,,,,h,1,1.69438,0,media/dcnb.png,2,"[-1,1,-1]",3,0,Symb,h,RT,0,0,13,1,2,99,99,h,1.69438,1,3,13,0,13,0,1,,,,,,,,,,,,,,,,,,,,,,,,,,,,,,,,,,
,,,,,,,,,,,,,,,,,,,,1,3,2021-01-08_18h16.05.156,CL_C2S3,2020.1.3,Win32,60,,,,,i,1,0.79899,2,media/dknb.png,1,"[1,-1,-1]",2,0,Symb,i,RT,0,0,14,1,2,99,99,i,0.79899,1,3,14,0,14,0,1,,,,,,,,,,,,,,,,,,,,,,,,,,,,,,,,,,
,,,,,,,,,,,,,,,,,,,,1,3,2021-01-08_18h16.05.156,CL_C2S3,2020.1.3,Win32,60,,,,,u,1,0.803335,2,media/dknb.png,2,"[-1,1,-1]",5,0,Symb,u,RT,0,0,15,1,2,99,99,u,0.803335,1,3,15,0,15,0,1,,,,,,,,,,,,,,,,,,,,,,,,,,,,,,,,,,
,,,,,,,,,,,,,,,,,,,,1,3,2021-01-08_18h16.05.156,CL_C2S3,2020.1.3,Win32,60,,,,,h,1,0.79746,0,media/dcnb.png,2,"[-1,1,-1]",3,0,Symb,h,RT,0,0,16,1,2,99,99,h,0.79746,1,3,16,0,16,0,1,,,,,,,,,,,,,,,,,,,,,,,,,,,,,,,,,,
,,,,,,,,,,,,,,,,,,,,1,3,2021-01-08_18h16.05.156,CL_C2S3,2020.1.3,Win32,60,,,,,i,1,0.644805,2,media/dknb.png,1,"[1,-1,-1]",2,0,Symb,i,RT,0,0,17,1,2,99,99,i,0.644805,1,3,17,0,17,0,1,,,,,,,,,,,,,,,,,,,,,,,,,,,,,,,,,,
,,,,,,,,,,,,,,,,,,,,1,3,2021-01-08_18h16.05.156,CL_C2S3,2020.1.3,Win32,60,,,,,h,1,0.52382,1,media/dfnb.png,1,"[1,-1,-1]",1,1,Symb,h,RT,0,0,18,1,2,99,99,h,0.52382,1,3,18,0,18,0,1,,,,,,,,,,,,,,,,,,,,,,,,,,,,,,,,,,
,,,,,,,,,,,,,,,,,,,,1,3,2021-01-08_18h16.05.156,CL_C2S3,2020.1.3,Win32,60,,,,,h,1,0.880785,1,media/dfnb.png,1,"[1,-1,-1]",1,1,Symb,h,RT,0,0,19,1,2,99,99,h,0.880785,1,3,19,0,19,0,1,,,,,,,,,,,,,,,,,,,,,,,,,,,,,,,,,,
,,,,,,,,,,,,,,,,,,,,1,3,2021-01-08_18h16.05.156,CL_C2S3,2020.1.3,Win32,60,,,,,u,1,1.679875,0,media/dcnb.png,1,"[1,-1,-1]",0,0,Symb,u,RT,0,0,20,1,2,99,99,u,1.679875,1,3,20,0,20,0,1,,,,,,,,,,,,,,,,,,,,,,,,,,,,,,,,,,
,,,,,,,,,,,,,,,,,,,,1,3,2021-01-08_18h16.05.156,CL_C2S3,2020.1.3,Win32,60,,,,,u,1,0.41354,0,media/dcnb.png,1,"[1,-1,-1]",0,0,Symb,u,RT,0,0,21,1,2,99,99,u,0.41354,1,3,21,0,21,0,1,,,,,,,,,,,,,,,,,,,,,,,,,,,,,,,,,,
,,,,,,,,,,,,,,,,,,,,1,3,2021-01-08_18h16.05.156,CL_C2S3,2020.1.3,Win32,60,,,,,i,0,0.826735,2,media/dknb.png,2,"[-1,1,-1]",5,0,Symb,u,RT,0,0,22,1,2,99,99,i,0.826735,0,3,22,0,22,0,1,,,,,,,,,,,,,,,,,,,,,,,,,,,,,,,,,,
,,,,,,,,,,,,,,,,,,,,1,3,2021-01-08_18h16.05.156,CL_C2S3,2020.1.3,Win32,60,,,,,i,1,0.78296,1,media/dfnb.png,2,"[-1,1,-1]",4,1,Symb,i,RT,0,0,23,1,2,99,99,i,0.78296,1,3,23,0,23,0,1,,,,,,,,,,,,,,,,,,,,,,,,,,,,,,,,,,
,,,,,,,,,,,,,,,,,,,,1,3,2021-01-08_18h16.05.156,CL_C2S3,2020.1.3,Win32,60,,,,,h,1,1.448985,0,media/dcnb.png,2,"[-1,1,-1]",3,0,Symb,h,RT,0,0,24,1,2,99,99,h,1.448985,1,3,24,0,24,0,1,,,,,,,,,,,,,,,,,,,,,,,,,,,,,,,,,,
,,,,,,,,,,,,,,,,,,,,1,3,2021-01-08_18h16.05.156,CL_C2S3,2020.1.3,Win32,60,,,,,u,1,0.52475,0,media/dcnb.png,1,"[1,-1,-1]",0,0,Symb,u,RT,0,0,25,1,2,99,99,u,0.52475,1,3,25,0,25,0,1,,,,,,,,,,,,,,,,,,,,,,,,,,,,,,,,,,
,,,,,,,,,,,,,,,,,,,,1,3,2021-01-08_18h16.05.156,CL_C2S3,2020.1.3,Win32,60,,,,,u,1,1.247905,2,media/dknb.png,2,"[-1,1,-1]",5,0,Symb,u,RT,0,0,26,1,2,99,99,u,1.247905,1,3,26,0,26,0,1,,,,,,,,,,,,,,,,,,,,,,,,,,,,,,,,,,
,,,,,,,,,,,,,,,,,,,,1,3,2021-01-08_18h16.05.156,CL_C2S3,2020.1.3,Win32,60,,,,,i,1,0.922045,1,media/dfnb.png,2,"[-1,1,-1]",4,1,Symb,i,RT,0,0,27,1,2,99,99,i,0.922045,1,3,27,0,27,0,1,,,,,,,,,,,,,,,,,,,,,,,,,,,,,,,,,,
,,,,,,,,,,,,,,,,,,,,1,3,2021-01-08_18h16.05.156,CL_C2S3,2020.1.3,Win32,60,,,,,h,1,1.28385,1,media/dfnb.png,1,"[1,-1,-1]",1,1,Symb,h,RT,0,0,28,1,2,99,99,h,1.28385,1,3,28,0,28,0,1,,,,,,,,,,,,,,,,,,,,,,,,,,,,,,,,,,
,,,,,,,,,,,,,,,,,,,,1,3,2021-01-08_18h16.05.156,CL_C2S3,2020.1.3,Win32,60,,,,,i,1,0.829185,2,media/dknb.png,1,"[1,-1,-1]",2,0,Symb,i,RT,0,0,29,1,2,99,99,i,0.829185,1,3,29,0,29,0,1,,,,,,,,,,,,,,,,,,,,,,,,,,,,,,,,,,
,,,,,,,,,,,,,,,,,,,,1,3,2021-01-08_18h16.05.156,CL_C2S3,2020.1.3,Win32,60,,,,,u,1,0.66607,0,media/dcnb.png,1,"[1,-1,-1]",0,0,Symb,u,RT,0,0,30,1,2,99,99,u,0.66607,1,3,30,0,30,0,1,,,,,,,,,,,,,,,,,,,,,,,,,,,,,,,,,,
,,,,,,,,,,,,,,,,,,,,1,3,2021-01-08_18h16.05.156,CL_C2S3,2020.1.3,Win32,60,,,,,u,1,0.419055,0,media/dcnb.png,1,"[1,-1,-1]",0,0,Symb,u,RT,0,0,31,1,2,99,99,u,0.419055,1,3,31,0,31,0,1,,,,,,,,,,,,,,,,,,,,,,,,,,,,,,,,,,
,,,,,,,,,,,,,,,,,,,,1,3,2021-01-08_18h16.05.156,CL_C2S3,2020.1.3,Win32,60,,,,,u,1,0.804325,2,media/dknb.png,2,"[-1,1,-1]",5,0,Symb,u,RT,0,0,32,1,2,99,99,u,0.804325,1,3,32,0,32,0,1,,,,,,,,,,,,,,,,,,,,,,,,,,,,,,,,,,
,,,,,,,,,,,,,,,,,,,,1,3,2021-01-08_18h16.05.156,CL_C2S3,2020.1.3,Win32,60,,,,,h,1,0.596935,0,media/dcnb.png,2,"[-1,1,-1]",3,0,Symb,h,RT,0,0,33,1,2,99,99,h,0.596935,1,3,33,0,33,0,1,,,,,,,,,,,,,,,,,,,,,,,,,,,,,,,,,,
,,,,,,,,,,,,,,,,,,,,1,3,2021-01-08_18h16.05.156,CL_C2S3,2020.1.3,Win32,60,,,,,i,1,0.604865,2,media/dknb.png,1,"[1,-1,-1]",2,0,Symb,i,RT,0,0,34,1,2,99,99,i,0.604865,1,3,34,0,34,0,1,,,,,,,,,,,,,,,,,,,,,,,,,,,,,,,,,,
,,,,,,,,,,,,,,,,,,,,1,3,2021-01-08_18h16.05.156,CL_C2S3,2020.1.3,Win32,60,,,,,h,0,0.56604,1,media/dfnb.png,2,"[-1,1,-1]",4,1,Symb,i,RT,0,0,35,1,2,99,99,h,0.56604,0,3,35,0,35,0,1,,,,,,,,,,,,,,,,,,,,,,,,,,,,,,,,,,
,,,,,,,,,,,,,,,,,,,,1,3,2021-01-08_18h16.05.156,CL_C2S3,2020.1.3,Win32,60,,,,,h,1,0.82425,0,media/dcnb.png,2,"[-1,1,-1]",3,0,Symb,h,RT,0,0,36,1,2,99,99,h,0.82425,1,3,36,0,36,0,1,,,,,,,,,,,,,,,,,,,,,,,,,,,,,,,,,,
,,,,,,,,,,,,,,,,,,,,1,3,2021-01-08_18h16.05.156,CL_C2S3,2020.1.3,Win32,60,,,,,h,1,0.56971,1,media/dfnb.png,1,"[1,-1,-1]",1,1,Symb,h,RT,0,0,37,1,2,99,99,h,0.56971,1,3,37,0,37,0,1,,,,,,,,,,,,,,,,,,,,,,,,,,,,,,,,,,
,,,,,,,,,,,,,,,,,,,,1,3,2021-01-08_18h16.05.156,CL_C2S3,2020.1.3,Win32,60,,,,,u,1,0.540225,2,media/dknb.png,2,"[-1,1,-1]",5,0,Symb,u,RT,0,0,38,1,2,99,99,u,0.540225,1,3,38,0,38,0,1,,,,,,,,,,,,,,,,,,,,,,,,,,,,,,,,,,
,,,,,,,,,,,,,,,,,,,,1,3,2021-01-08_18h16.05.156,CL_C2S3,2020.1.3,Win32,60,,,,,h,0,0.753335,1,media/dfnb.png,2,"[-1,1,-1]",4,1,Symb,i,RT,0,0,39,1,2,99,99,h,0.753335,0,3,39,0,39,0,1,,,,,,,,,,,,,,,,,,,,,,,,,,,,,,,,,,
,,,,,,,,,,,,,,,,,,,,1,3,2021-01-08_18h16.05.156,CL_C2S3,2020.1.3,Win32,60,,,,,i,1,0.8441,2,media/dknb.png,1,"[1,-1,-1]",2,0,Symb,i,RT,0,0,40,1,2,99,99,i,0.8441,1,3,40,0,40,0,1,,,,,,,,,,,,,,,,,,,,,,,,,,,,,,,,,,
,,,,,,,,,,,,,,,,,,,,1,3,2021-01-08_18h16.05.156,CL_C2S3,2020.1.3,Win32,60,,,,,h,1,1.226055,1,media/dfnb.png,1,"[1,-1,-1]",1,1,Symb,h,RT,0,0,41,1,2,99,99,h,1.226055,1,3,41,0,41,0,1,,,,,,,,,,,,,,,,,,,,,,,,,,,,,,,,,,
,,,,,,,,,,,,,,,,,,,,1,3,2021-01-08_18h16.05.156,CL_C2S3,2020.1.3,Win32,60,,,,,u,0,0.539995,2,media/dknb.png,1,"[1,-1,-1]",2,0,Symb,i,RT,0,0,42,1,2,99,99,u,0.539995,0,3,42,0,42,0,1,,,,,,,,,,,,,,,,,,,,,,,,,,,,,,,,,,
,,,,,,,,,,,,,,,,,,,,1,3,2021-01-08_18h16.05.156,CL_C2S3,2020.1.3,Win32,60,,,,,h,1,0.79024,1,media/dfnb.png,1,"[1,-1,-1]",1,1,Symb,h,RT,0,0,43,1,2,99,99,h,0.79024,1,3,43,0,43,0,1,,,,,,,,,,,,,,,,,,,,,,,,,,,,,,,,,,
,,,,,,,,,,,,,,,,,,,,1,3,2021-01-08_18h16.05.156,CL_C2S3,2020.1.3,Win32,60,,,,,u,0,0.68816,0,media/dcnb.png,2,"[-1,1,-1]",3,0,Symb,h,RT,0,0,44,1,2,99,99,u,0.68816,0,3,44,0,44,0,1,,,,,,,,,,,,,,,,,,,,,,,,,,,,,,,,,,
,,,,,,,,,,,,,,,,,,,,1,3,2021-01-08_18h16.05.156,CL_C2S3,2020.1.3,Win32,60,,,,,u,1,1.603575,2,media/dknb.png,2,"[-1,1,-1]",5,0,Symb,u,RT,0,0,45,1,2,99,99,u,1.603575,1,3,45,0,45,0,1,,,,,,,,,,,,,,,,,,,,,,,,,,,,,,,,,,
,,,,,,,,,,,,,,,,,,,,1,3,2021-01-08_18h16.05.156,CL_C2S3,2020.1.3,Win32,60,,,,,i,1,0.482235,2,media/dknb.png,1,"[1,-1,-1]",2,0,Symb,i,RT,0,0,46,1,2,99,99,i,0.482235,1,3,46,0,46,0,1,,,,,,,,,,,,,,,,,,,,,,,,,,,,,,,,,,
,,,,,,,,,,,,,,,,,,,,1,3,2021-01-08_18h16.05.156,CL_C2S3,2020.1.3,Win32,60,,,,,i,1,0.39865,1,media/dfnb.png,2,"[-1,1,-1]",4,1,Symb,i,RT,0,0,47,1,2,99,99,i,0.39865,1,3,47,0,47,0,1,,,,,,,,,,,,,,,,,,,,,,,,,,,,,,,,,,
,,,,,,,,,,,,,,,,,,,,1,3,2021-01-08_18h16.05.156,CL_C2S3,2020.1.3,Win32,60,,,,,u,1,0.58093,0,media/dcnb.png,1,"[1,-1,-1]",0,0,Symb,u,RT,0,0,48,1,2,99,99,u,0.58093,1,3,48,0,48,0,1,,,,,,,,,,,,,,,,,,,,,,,,,,,,,,,,,,
,,,,,,,,,,,,,,,,,,,,1,3,2021-01-08_18h16.05.156,CL_C2S3,2020.1.3,Win32,60,,,,,u,1,0.69406,2,media/dknb.png,2,"[-1,1,-1]",5,0,Symb,u,RT,0,0,49,1,2,99,99,u,0.69406,1,3,49,0,49,0,1,,,,,,,,,,,,,,,,,,,,,,,,,,,,,,,,,,
,,,,,,,,,,,,,,,,,,,,1,3,2021-01-08_18h16.05.156,CL_C2S3,2020.1.3,Win32,60,,,,,h,1,0.539825,1,media/dfnb.png,1,"[1,-1,-1]",1,1,Symb,h,RT,0,0,50,1,2,99,99,h,0.539825,1,3,50,0,50,0,1,,,,,,,,,,,,,,,,,,,,,,,,,,,,,,,,,,
,,,,,,,,,,,,,,,,,,,,1,3,2021-01-08_18h16.05.156,CL_C2S3,2020.1.3,Win32,60,,,,,i,1,0.688915,1,media/dfnb.png,2,"[-1,1,-1]",4,1,Symb,i,RT,0,0,51,1,2,99,99,i,0.688915,1,3,51,0,51,0,1,,,,,,,,,,,,,,,,,,,,,,,,,,,,,,,,,,
,,,,,,,,,,,,,,,,,,,,1,3,2021-01-08_18h16.05.156,CL_C2S3,2020.1.3,Win32,60,,,,,h,1,0.78605,0,media/dcnb.png,2,"[-1,1,-1]",3,0,Symb,h,RT,0,0,52,1,2,99,99,h,0.78605,1,3,52,0,52,0,1,,,,,,,,,,,,,,,,,,,,,,,,,,,,,,,,,,
,,,,,,,,,,,,,,,,,,,,1,3,2021-01-08_18h16.05.156,CL_C2S3,2020.1.3,Win32,60,,,,,u,1,0.547925,0,media/dcnb.png,1,"[1,-1,-1]",0,0,Symb,u,RT,0,0,53,1,2,99,99,u,0.547925,1,3,53,0,53,0,1,,,,,,,,,,,,,,,,,,,,,,,,,,,,,,,,,,
,,,,,,,,,,,,,,,,,,,,1,3,2021-01-08_18h16.05.156,CL_C2S3,2020.1.3,Win32,60,,,,,h,1,0.60891,0,media/dcnb.png,2,"[-1,1,-1]",3,0,Symb,h,RT,0,0,54,1,2,99,99,h,0.60891,1,3,54,0,54,0,1,,,,,,,,,,,,,,,,,,,,,,,,,,,,,,,,,,
,,,,,,,,,,,,,,,,,,,,1,3,2021-01-08_18h16.05.156,CL_C2S3,2020.1.3,Win32,60,,,,,i,1,0.725955,1,media/dfnb.png,2,"[-1,1,-1]",4,1,Symb,i,RT,0,0,55,1,2,99,99,i,0.725955,1,3,55,0,55,0,1,,,,,,,,,,,,,,,,,,,,,,,,,,,,,,,,,,
,,,,,,,,,,,,,,,,,,,,1,3,2021-01-08_18h16.05.156,CL_C2S3,2020.1.3,Win32,60,,,,,u,1,0.788515,0,media/dcnb.png,1,"[1,-1,-1]",0,0,Symb,u,RT,0,0,56,1,2,99,99,u,0.788515,1,3,56,0,56,0,1,,,,,,,,,,,,,,,,,,,,,,,,,,,,,,,,,,
,,,,,,,,,,,,,,,,,,,,1,3,2021-01-08_18h16.05.156,CL_C2S3,2020.1.3,Win32,60,,,,,u,1,0.625865,2,media/dknb.png,2,"[-1,1,-1]",5,0,Symb,u,RT,0,0,57,1,2,99,99,u,0.625865,1,3,57,0,57,0,1,,,,,,,,,,,,,,,,,,,,,,,,,,,,,,,,,,
,,,,,,,,,,,,,,,,,,,,1,3,2021-01-08_18h16.05.156,CL_C2S3,2020.1.3,Win32,60,,,,,i,1,0.51277,2,media/dknb.png,1,"[1,-1,-1]",2,0,Symb,i,RT,0,0,58,1,2,99,99,i,0.51277,1,3,58,0,58,0,1,,,,,,,,,,,,,,,,,,,,,,,,,,,,,,,,,,
,,,,,,,,,,,,,,,,,,,,1,3,2021-01-08_18h16.05.156,CL_C2S3,2020.1.3,Win32,60,,,,,h,1,0.52257,1,media/dfnb.png,1,"[1,-1,-1]",1,1,Symb,h,RT,0,0,59,1,2,99,99,h,0.52257,1,3,59,0,59,0,1,,,,,,,,,,,,,,,,,,,,,,,,,,,,,,,,,,
,,,,,,,,,,,,,,,,,,,,1,3,2021-01-08_18h16.05.156,CL_C2S3,2020.1.3,Win32,60,,,,,h,1,0.86128,0,media/dcnb.png,2,"[-1,1,-1]",3,0,Symb,h,RT,0,0,60,1,2,99,99,h,0.86128,1,3,60,0,60,0,1,,,,,,,,,,,,,,,,,,,,,,,,,,,,,,,,,,
,,,,,,,,,,,,,,,,,,,,1,3,2021-01-08_18h16.05.156,CL_C2S3,2020.1.3,Win32,60,,,,,i,1,0.840165,1,media/dfnb.png,2,"[-1,1,-1]",4,1,Symb,i,RT,0,0,61,1,2,99,99,i,0.840165,1,3,61,0,61,0,1,,,,,,,,,,,,,,,,,,,,,,,,,,,,,,,,,,
,,,,,,,,,,,,,,,,,,,,1,3,2021-01-08_18h16.05.156,CL_C2S3,2020.1.3,Win32,60,,,,,i,1,0.469265,1,media/dfnb.png,2,"[-1,1,-1]",4,1,Symb,i,RT,0,0,62,1,2,99,99,i,0.469265,1,3,62,0,62,0,1,,,,,,,,,,,,,,,,,,,,,,,,,,,,,,,,,,
,,,,,,,,,,,,,,,,,,,,1,3,2021-01-08_18h16.05.156,CL_C2S3,2020.1.3,Win32,60,,,,,u,1,2.104715,0,media/dcnb.png,1,"[1,-1,-1]",0,0,Symb,u,RT,0,0,63,1,2,99,99,u,2.104715,1,3,63,0,63,0,1,,,,,,,,,,,,,,,,,,,,,,,,,,,,,,,,,,
,,,,,,,,,,,,,,,,,,,,1,3,2021-01-08_18h16.05.156,CL_C2S3,2020.1.3,Win32,60,,,,,i,1,0.90219,2,media/dknb.png,1,"[1,-1,-1]",2,0,Symb,i,RT,0,0,64,1,2,99,99,i,0.90219,1,3,64,0,64,0,1,,,,,,,,,,,,,,,,,,,,,,,,,,,,,,,,,,
,,,,,,,,,,,,,,,,,,,,1,3,2021-01-08_18h16.05.156,CL_C2S3,2020.1.3,Win32,60,,,,,h,1,0.833225,0,media/dcnb.png,2,"[-1,1,-1]",3,0,Symb,h,RT,0,0,65,1,2,99,99,h,0.833225,1,3,65,0,65,0,1,,,,,,,,,,,,,,,,,,,,,,,,,,,,,,,,,,
,,,,,,,,,,,,,,,,,,,,1,3,2021-01-08_18h16.05.156,CL_C2S3,2020.1.3,Win32,60,,,,,u,1,0.73608,2,media/dknb.png,2,"[-1,1,-1]",5,0,Symb,u,RT,0,0,66,1,2,99,99,u,0.73608,1,3,66,0,66,0,1,,,,,,,,,,,,,,,,,,,,,,,,,,,,,,,,,,
,,,,,,,,,,,,,,,,,,,,1,3,2021-01-08_18h16.05.156,CL_C2S3,2020.1.3,Win32,60,,,,,u,1,0.596915,0,media/dcnb.png,1,"[1,-1,-1]",0,0,Symb,u,RT,0,0,67,1,2,99,99,u,0.596915,1,3,67,0,67,0,1,,,,,,,,,,,,,,,,,,,,,,,,,,,,,,,,,,
,,,,,,,,,,,,,,,,,,,,1,3,2021-01-08_18h16.05.156,CL_C2S3,2020.1.3,Win32,60,,,,,h,1,0.637275,1,media/dfnb.png,1,"[1,-1,-1]",1,1,Symb,h,RT,0,0,68,1,2,99,99,h,0.637275,1,3,68,0,68,0,1,,,,,,,,,,,,,,,,,,,,,,,,,,,,,,,,,,
,,,,,,,,,,,,,,,,,,,,1,3,2021-01-08_18h16.05.156,CL_C2S3,2020.1.3,Win32,60,,,,,u,1,0.571825,2,media/dknb.png,2,"[-1,1,-1]",5,0,Symb,u,RT,0,0,69,1,2,99,99,u,0.571825,1,3,69,0,69,0,1,,,,,,,,,,,,,,,,,,,,,,,,,,,,,,,,,,
,,,,,,,,,,,,,,,,,,,,1,3,2021-01-08_18h16.05.156,CL_C2S3,2020.1.3,Win32,60,,,,,i,1,0.667915,2,media/dknb.png,1,"[1,-1,-1]",2,0,Symb,i,RT,0,0,70,1,2,99,99,i,0.667915,1,3,70,0,70,0,1,,,,,,,,,,,,,,,,,,,,,,,,,,,,,,,,,,
,,,,,,,,,,,,,,,,,,,,1,3,2021-01-08_18h16.05.156,CL_C2S3,2020.1.3,Win32,60,,,,,h,1,0.810225,1,media/dfnb.png,1,"[1,-1,-1]",1,1,Symb,h,RT,0,0,71,1,2,99,99,h,0.810225,1,3,71,0,71,0,1,,,,,,,,,,,,,,,,,,,,,,,,,,,,,,,,,,
,,,,,,,,,,,,,,,,,,,,1,3,2021-01-08_18h16.05.156,CL_C2S3,2020.1.3,Win32,60,,,,,h,1,0.43641,1,media/dfnb.png,1,"[1,-1,-1]",1,1,Symb,h,RT,0,0,72,1,2,99,99,h,0.43641,1,3,72,0,72,0,1,,,,,,,,,,,,,,,,,,,,,,,,,,,,,,,,,,
,,,,,,,,,,,,,,,,,,,,1,3,2021-01-08_18h16.05.156,CL_C2S3,2020.1.3,Win32,60,,,,,u,1,0.65165,2,media/dknb.png,2,"[-1,1,-1]",5,0,Symb,u,RT,0,0,73,1,2,99,99,u,0.65165,1,3,73,0,73,0,1,,,,,,,,,,,,,,,,,,,,,,,,,,,,,,,,,,
,,,,,,,,,,,,,,,,,,,,1,3,2021-01-08_18h16.05.156,CL_C2S3,2020.1.3,Win32,60,,,,,h,1,0.705065,0,media/dcnb.png,2,"[-1,1,-1]",3,0,Symb,h,RT,0,0,74,1,2,99,99,h,0.705065,1,3,74,0,74,0,1,,,,,,,,,,,,,,,,,,,,,,,,,,,,,,,,,,
,,,,,,,,,,,,,,,,,,,,1,3,2021-01-08_18h16.05.156,CL_C2S3,2020.1.3,Win32,60,,,,,h,1,0.50206,0,media/dcnb.png,2,"[-1,1,-1]",3,0,Symb,h,RT,0,0,75,1,2,99,99,h,0.50206,1,3,75,0,75,0,1,,,,,,,,,,,,,,,,,,,,,,,,,,,,,,,,,,
,,,,,,,,,,,,,,,,,,,,1,3,2021-01-08_18h16.05.156,CL_C2S3,2020.1.3,Win32,60,,,,,h,1,0.60896,1,media/dfnb.png,1,"[1,-1,-1]",1,1,Symb,h,RT,0,0,76,1,2,99,99,h,0.60896,1,3,76,0,76,0,1,,,,,,,,,,,,,,,,,,,,,,,,,,,,,,,,,,
,,,,,,,,,,,,,,,,,,,,1,3,2021-01-08_18h16.05.156,CL_C2S3,2020.1.3,Win32,60,,,,,i,1,0.501495,2,media/dknb.png,1,"[1,-1,-1]",2,0,Symb,i,RT,0,0,77,1,2,99,99,i,0.501495,1,3,77,0,77,0,1,,,,,,,,,,,,,,,,,,,,,,,,,,,,,,,,,,
,,,,,,,,,,,,,,,,,,,,1,3,2021-01-08_18h16.05.156,CL_C2S3,2020.1.3,Win32,60,,,,,u,1,0.687835,0,media/dcnb.png,1,"[1,-1,-1]",0,0,Symb,u,RT,0,0,78,1,2,99,99,u,0.687835,1,3,78,0,78,0,1,,,,,,,,,,,,,,,,,,,,,,,,,,,,,,,,,,
,,,,,,,,,,,,,,,,,,,,1,3,2021-01-08_18h16.05.156,CL_C2S3,2020.1.3,Win32,60,,,,,i,1,0.67475,2,media/dknb.png,1,"[1,-1,-1]",2,0,Symb,i,RT,0,0,79,1,2,99,99,i,0.67475,1,3,79,0,79,0,1,,,,,,,,,,,,,,,,,,,,,,,,,,,,,,,,,,
,,,,,,,,,,,,,,,,,,,,1,3,2021-01-08_18h16.05.156,CL_C2S3,2020.1.3,Win32,60,,,,,i,1,0.862625,1,media/dfnb.png,2,"[-1,1,-1]",4,1,Symb,i,RT,0,0,80,1,2,99,99,i,0.862625,1,3,80,0,80,0,1,,,,,,,,,,,,,,,,,,,,,,,,,,,,,,,,,,
,,,,,,,,,,,,,,,,,,,,1,3,2021-01-08_18h16.05.156,CL_C2S3,2020.1.3,Win32,60,,,,,i,1,0.331755,1,media/dfnb.png,2,"[-1,1,-1]",4,1,Symb,i,RT,0,0,81,1,2,99,99,i,0.331755,1,3,81,0,81,0,1,,,,,,,,,,,,,,,,,,,,,,,,,,,,,,,,,,
,,,,,,,,,,,,,,,,,,,,1,3,2021-01-08_18h16.05.156,CL_C2S3,2020.1.3,Win32,60,,,,,u,1,0.62927,0,media/dcnb.png,1,"[1,-1,-1]",0,0,Symb,u,RT,0,0,82,1,2,99,99,u,0.62927,1,3,82,0,82,0,1,,,,,,,,,,,,,,,,,,,,,,,,,,,,,,,,,,
,,,,,,,,,,,,,,,,,,,,1,3,2021-01-08_18h16.05.156,CL_C2S3,2020.1.3,Win32,60,,,,,u,1,0.61895,2,media/dknb.png,2,"[-1,1,-1]",5,0,Symb,u,RT,0,0,83,1,2,99,99,u,0.61895,1,3,83,0,83,0,1,,,,,,,,,,,,,,,,,,,,,,,,,,,,,,,,,,
,,,,,,,,,,,,,,,,,,,,1,3,2021-01-08_18h16.05.156,CL_C2S3,2020.1.3,Win32,60,,,,,h,1,0.529675,1,media/dfnb.png,1,"[1,-1,-1]",1,1,Symb,h,RT,0,0,84,1,2,99,99,h,0.529675,1,3,84,0,84,0,1,,,,,,,,,,,,,,,,,,,,,,,,,,,,,,,,,,
,,,,,,,,,,,,,,,,,,,,1,3,2021-01-08_18h16.05.156,CL_C2S3,2020.1.3,Win32,60,,,,,i,1,0.971235,2,media/dknb.png,1,"[1,-1,-1]",2,0,Symb,i,RT,0,0,85,1,2,99,99,i,0.971235,1,3,85,0,85,0,1,,,,,,,,,,,,,,,,,,,,,,,,,,,,,,,,,,
,,,,,,,,,,,,,,,,,,,,1,3,2021-01-08_18h16.05.156,CL_C2S3,2020.1.3,Win32,60,,,,,u,1,1.173785,0,media/dcnb.png,1,"[1,-1,-1]",0,0,Symb,u,RT,0,0,86,1,2,99,99,u,1.173785,1,3,86,0,86,0,1,,,,,,,,,,,,,,,,,,,,,,,,,,,,,,,,,,
,,,,,,,,,,,,,,,,,,,,1,3,2021-01-08_18h16.05.156,CL_C2S3,2020.1.3,Win32,60,,,,,u,1,0.77355,2,media/dknb.png,2,"[-1,1,-1]",5,0,Symb,u,RT,0,0,87,1,2,99,99,u,0.77355,1,3,87,0,87,0,1,,,,,,,,,,,,,,,,,,,,,,,,,,,,,,,,,,
,,,,,,,,,,,,,,,,,,,,1,3,2021-01-08_18h16.05.156,CL_C2S3,2020.1.3,Win32,60,,,,,i,1,0.69555,1,media/dfnb.png,2,"[-1,1,-1]",4,1,Symb,i,RT,0,0,88,1,2,99,99,i,0.69555,1,3,88,0,88,0,1,,,,,,,,,,,,,,,,,,,,,,,,,,,,,,,,,,
,,,,,,,,,,,,,,,,,,,,1,3,2021-01-08_18h16.05.156,CL_C2S3,2020.1.3,Win32,60,,,,,h,1,0.970275,0,media/dcnb.png,2,"[-1,1,-1]",3,0,Symb,h,RT,0,0,89,1,2,99,99,h,0.970275,1,3,89,0,89,0,1,,,,,,,,,,,,,,,,,,,,,,,,,,,,,,,,,,
,,,,,,,,,,,,,,,,,,,,1,3,2021-01-08_18h16.05.156,CL_C2S3,2020.1.3,Win32,60,,,,,h,1,0.882585,0,media/dcnb.png,2,"[-1,1,-1]",3,0,Symb,h,RT,0,0,90,1,2,99,99,h,0.882585,1,3,90,0,90,0,1,,,,,,,,,,,,,,,,,,,,,,,,,,,,,,,,,,
,,,,,,,,,,,,,,,,,,,,1,3,2021-01-08_18h16.05.156,CL_C2S3,2020.1.3,Win32,60,,,,,u,1,0.695975,2,media/dknb.png,2,"[-1,1,-1]",5,0,Symb,u,RT,0,0,91,1,2,99,99,u,0.695975,1,3,91,0,91,0,1,,,,,,,,,,,,,,,,,,,,,,,,,,,,,,,,,,
,,,,,,,,,,,,,,,,,,,,1,3,2021-01-08_18h16.05.156,CL_C2S3,2020.1.3,Win32,60,,,,,h,0,0.58851,1,media/dfnb.png,2,"[-1,1,-1]",4,1,Symb,i,RT,0,0,92,1,2,99,99,h,0.58851,0,3,92,0,92,0,1,,,,,,,,,,,,,,,,,,,,,,,,,,,,,,,,,,
,,,,,,,,,,,,,,,,,,,,1,3,2021-01-08_18h16.05.156,CL_C2S3,2020.1.3,Win32,60,,,,,h,1,0.6313,1,media/dfnb.png,1,"[1,-1,-1]",1,1,Symb,h,RT,0,0,93,1,2,99,99,h,0.6313,1,3,93,0,93,0,1,,,,,,,,,,,,,,,,,,,,,,,,,,,,,,,,,,
,,,,,,,,,,,,,,,,,,,,1,3,2021-01-08_18h16.05.156,CL_C2S3,2020.1.3,Win32,60,,,,,i,1,0.828065,2,media/dknb.png,1,"[1,-1,-1]",2,0,Symb,i,RT,0,0,94,1,2,99,99,i,0.828065,1,3,94,0,94,0,1,,,,,,,,,,,,,,,,,,,,,,,,,,,,,,,,,,
,,,,,,,,,,,,,,,,,,,,1,3,2021-01-08_18h16.05.156,CL_C2S3,2020.1.3,Win32,60,,,,,h,1,0.831385,0,media/dcnb.png,2,"[-1,1,-1]",3,0,Symb,h,RT,0,0,95,1,2,99,99,h,0.831385,1,3,95,0,95,0,1,,,,,,,,,,,,,,,,,,,,,,,,,,,,,,,,,,
,,,,,,,,,,,,,,,,,,,,1,3,2021-01-08_18h16.05.156,CL_C2S3,2020.1.3,Win32,60,,,,,i,1,0.637135,2,media/dknb.png,1,"[1,-1,-1]",2,0,Symb,i,RT,0,0,96,1,2,99,99,i,0.637135,1,3,96,0,96,0,1,,,,,,,,,,,,,,,,,,,,,,,,,,,,,,,,,,
,,,,,,,,,,,,,,,,,,,,1,3,2021-01-08_18h16.05.156,CL_C2S3,2020.1.3,Win32,60,,,,,u,1,0.504415,2,media/dknb.png,2,"[-1,1,-1]",5,0,Symb,u,RT,0,0,97,1,2,99,99,u,0.504415,1,3,97,0,97,0,1,,,,,,,,,,,,,,,,,,,,,,,,,,,,,,,,,,
,,,,,,,,,,,,,,,,,,,,1,3,2021-01-08_18h16.05.156,CL_C2S3,2020.1.3,Win32,60,,,,,u,1,1.13866,0,media/dcnb.png,1,"[1,-1,-1]",0,0,Symb,u,RT,0,0,98,1,2,99,99,u,1.13866,1,3,98,0,98,0,1,,,,,,,,,,,,,,,,,,,,,,,,,,,,,,,,,,
,,,,,,,,,,,,,,,,,,,,1,3,2021-01-08_18h16.05.156,CL_C2S3,2020.1.3,Win32,60,,,,,i,1,0.70918,1,media/dfnb.png,2,"[-1,1,-1]",4,1,Symb,i,RT,0,0,99,1,2,99,99,i,0.70918,1,3,99,0,99,0,1,,,,,,,,,,,,,,,,,,,,,,,,,,,,,,,,,,
,,,,,,,,,,,,,,,,,,,,1,3,2021-01-08_18h16.05.156,CL_C2S3,2020.1.3,Win32,60,,,,,i,0,0.439445,1,media/dfnb.png,1,"[1,-1,-1]",1,1,Symb,h,RT,0,0,100,1,2,99,99,i,0.439445,0,3,100,0,100,0,1,,,,,,,,,,,,,,,,,,,,,,,,,,,,,,,,,,
,,,,,,,,,,,,,,,,,,,,1,3,2021-01-08_18h16.05.156,CL_C2S3,2020.1.3,Win32,60,,,,,u,1,0.58419,0,media/dcnb.png,1,"[1,-1,-1]",0,0,Symb,u,RT,0,0,101,1,2,99,99,u,0.58419,1,3,101,0,101,0,1,,,,,,,,,,,,,,,,,,,,,,,,,,,,,,,,,,
,,,,,,,,,,,,,,,,,,,,1,3,2021-01-08_18h16.05.156,CL_C2S3,2020.1.3,Win32,60,,,,,i,1,0.426875,1,media/dfnb.png,2,"[-1,1,-1]",4,1,Symb,i,RT,0,0,102,1,2,99,99,i,0.426875,1,3,102,0,102,0,1,,,,,,,,,,,,,,,,,,,,,,,,,,,,,,,,,,
,,,,,,,,,,,,,,,,,,,,1,3,2021-01-08_18h16.05.156,CL_C2S3,2020.1.3,Win32,60,,,,,i,1,0.8945,2,media/dknb.png,1,"[1,-1,-1]",2,0,Symb,i,RT,0,0,103,1,2,99,99,i,0.8945,1,3,103,0,103,0,1,,,,,,,,,,,,,,,,,,,,,,,,,,,,,,,,,,
,,,,,,,,,,,,,,,,,,,,1,3,2021-01-08_18h16.05.156,CL_C2S3,2020.1.3,Win32,60,,,,,i,1,0.637565,2,media/dknb.png,1,"[1,-1,-1]",2,0,Symb,i,RT,0,0,104,1,2,99,99,i,0.637565,1,3,104,0,104,0,1,,,,,,,,,,,,,,,,,,,,,,,,,,,,,,,,,,
,,,,,,,,,,,,,,,,,,,,1,3,2021-01-08_18h16.05.156,CL_C2S3,2020.1.3,Win32,60,,,,,h,0,0.799205,1,media/dfnb.png,2,"[-1,1,-1]",4,1,Symb,i,RT,0,0,105,1,2,99,99,h,0.799205,0,3,105,0,105,0,1,,,,,,,,,,,,,,,,,,,,,,,,,,,,,,,,,,
,,,,,,,,,,,,,,,,,,,,1,3,2021-01-08_18h16.05.156,CL_C2S3,2020.1.3,Win32,60,,,,,h,1,0.56441,1,media/dfnb.png,1,"[1,-1,-1]",1,1,Symb,h,RT,0,0,106,1,2,99,99,h,0.56441,1,3,106,0,106,0,1,,,,,,,,,,,,,,,,,,,,,,,,,,,,,,,,,,
,,,,,,,,,,,,,,,,,,,,1,3,2021-01-08_18h16.05.156,CL_C2S3,2020.1.3,Win32,60,,,,,u,1,0.850495,0,media/dcnb.png,1,"[1,-1,-1]",0,0,Symb,u,RT,0,0,107,1,2,99,99,u,0.850495,1,3,107,0,107,0,1,,,,,,,,,,,,,,,,,,,,,,,,,,,,,,,,,,
,,,,,,,,,,,,,,,,,,,,1,3,2021-01-08_18h16.05.156,CL_C2S3,2020.1.3,Win32,60,,,,,h,1,0.968455,0,media/dcnb.png,2,"[-1,1,-1]",3,0,Symb,h,RT,0,0,108,1,2,99,99,h,0.968455,1,3,108,0,108,0,1,,,,,,,,,,,,,,,,,,,,,,,,,,,,,,,,,,
,,,,,,,,,,,,,,,,,,,,1,3,2021-01-08_18h16.05.156,CL_C2S3,2020.1.3,Win32,60,,,,,h,1,0.392085,0,media/dcnb.png,2,"[-1,1,-1]",3,0,Symb,h,RT,0,0,109,1,2,99,99,h,0.392085,1,3,109,0,109,0,1,,,,,,,,,,,,,,,,,,,,,,,,,,,,,,,,,,
,,,,,,,,,,,,,,,,,,,,1,3,2021-01-08_18h16.05.156,CL_C2S3,2020.1.3,Win32,60,,,,,u,1,0.732695,0,media/dcnb.png,1,"[1,-1,-1]",0,0,Symb,u,RT,0,0,110,1,2,99,99,u,0.732695,1,3,110,0,110,0,1,,,,,,,,,,,,,,,,,,,,,,,,,,,,,,,,,,
,,,,,,,,,,,,,,,,,,,,1,3,2021-01-08_18h16.05.156,CL_C2S3,2020.1.3,Win32,60,,,,,u,1,0.99764,2,media/dknb.png,2,"[-1,1,-1]",5,0,Symb,u,RT,0,0,111,1,2,99,99,u,0.99764,1,3,111,0,111,0,1,,,,,,,,,,,,,,,,,,,,,,,,,,,,,,,,,,
,,,,,,,,,,,,,,,,,,,,1,3,2021-01-08_18h16.05.156,CL_C2S3,2020.1.3,Win32,60,,,,,h,1,0.699415,1,media/dfnb.png,1,"[1,-1,-1]",1,1,Symb,h,RT,0,0,112,1,2,99,99,h,0.699415,1,3,112,0,112,0,1,,,,,,,,,,,,,,,,,,,,,,,,,,,,,,,,,,
,,,,,,,,,,,,,,,,,,,,1,3,2021-01-08_18h16.05.156,CL_C2S3,2020.1.3,Win32,60,,,,,u,1,0.737245,2,media/dknb.png,2,"[-1,1,-1]",5,0,Symb,u,RT,0,0,113,1,2,99,99,u,0.737245,1,3,113,0,113,0,1,,,,,,,,,,,,,,,,,,,,,,,,,,,,,,,,,,
,,,,,,,,,,,,,,,,,,,,1,3,2021-01-08_18h16.05.156,CL_C2S3,2020.1.3,Win32,60,,,,,h,1,0.581575,1,media/dfnb.png,1,"[1,-1,-1]",1,1,Symb,h,RT,0,0,114,1,2,99,99,h,0.581575,1,3,114,0,114,0,1,,,,,,,,,,,,,,,,,,,,,,,,,,,,,,,,,,
,,,,,,,,,,,,,,,,,,,,1,3,2021-01-08_18h16.05.156,CL_C2S3,2020.1.3,Win32,60,,,,,u,1,0.71968,2,media/dknb.png,2,"[-1,1,-1]",5,0,Symb,u,RT,0,0,115,1,2,99,99,u,0.71968,1,3,115,0,115,0,1,,,,,,,,,,,,,,,,,,,,,,,,,,,,,,,,,,
,,,,,,,,,,,,,,,,,,,,1,3,2021-01-08_18h16.05.156,CL_C2S3,2020.1.3,Win32,60,,,,,i,1,0.397135,2,media/dknb.png,1,"[1,-1,-1]",2,0,Symb,i,RT,0,0,116,1,2,99,99,i,0.397135,1,3,116,0,116,0,1,,,,,,,,,,,,,,,,,,,,,,,,,,,,,,,,,,
,,,,,,,,,,,,,,,,,,,,1,3,2021-01-08_18h16.05.156,CL_C2S3,2020.1.3,Win32,60,,,,,u,1,0.622855,0,media/dcnb.png,1,"[1,-1,-1]",0,0,Symb,u,RT,0,0,117,1,2,99,99,u,0.622855,1,3,117,0,117,0,1,,,,,,,,,,,,,,,,,,,,,,,,,,,,,,,,,,
,,,,,,,,,,,,,,,,,,,,1,3,2021-01-08_18h16.05.156,CL_C2S3,2020.1.3,Win32,60,,,,,i,1,0.608195,1,media/dfnb.png,2,"[-1,1,-1]",4,1,Symb,i,RT,0,0,118,1,2,99,99,i,0.608195,1,3,118,0,118,0,1,,,,,,,,,,,,,,,,,,,,,,,,,,,,,,,,,,
,,,,,,,,,,,,,,,,,,,,1,3,2021-01-08_18h16.05.156,CL_C2S3,2020.1.3,Win32,60,,,,,u,0,0.666365,0,media/dcnb.png,2,"[-1,1,-1]",3,0,Symb,h,RT,0,0,119,1,2,99,99,u,0.666365,0,3,119,0,119,0,1,,,,,,,,,,,,,,,,,,,,,,,,,,,,,,,,,,
,,,,,,,,,,,,,,,,,,,,1,3,2021-01-08_18h16.05.156,CL_C2S3,2020.1.3,Win32,60,,,,,,,,,,,,,,,,,,,,,,,,,,,,,,,,,1,0,1,0,1,,,,,,,,,,,,,,,,,,,,,,,,,,,,,
,,,,,,,,,,,,,,,,,,,,1,3,2021-01-08_18h16.05.156,CL_C2S3,2020.1.3,Win32,60,,,h,73.222825,i,1,0.79595,1,media/dfnb.png,2,"[-1,1,-1]",4,1,Symb,i,RT,0,0,0,1,3,99,99,i,0.79595,1,3,0,0,0,0,1,,,,,,,,,,,,,,,,,,,,,,,,,,,,,,,,,,
,,,,,,,,,,,,,,,,,,,,1,3,2021-01-08_18h16.05.156,CL_C2S3,2020.1.3,Win32,60,,,,,u,1,0.644515,0,media/dcnb.png,1,"[1,-1,-1]",0,0,Symb,u,RT,0,0,1,1,3,99,99,u,0.644515,1,3,1,0,1,0,1,,,,,,,,,,,,,,,,,,,,,,,,,,,,,,,,,,
,,,,,,,,,,,,,,,,,,,,1,3,2021-01-08_18h16.05.156,CL_C2S3,2020.1.3,Win32,60,,,,,h,1,0.6074,0,media/dcnb.png,2,"[-1,1,-1]",3,0,Symb,h,RT,0,0,2,1,3,99,99,h,0.6074,1,3,2,0,2,0,1,,,,,,,,,,,,,,,,,,,,,,,,,,,,,,,,,,
,,,,,,,,,,,,,,,,,,,,1,3,2021-01-08_18h16.05.156,CL_C2S3,2020.1.3,Win32,60,,,,,u,1,0.81425,2,media/dknb.png,2,"[-1,1,-1]",5,0,Symb,u,RT,0,0,3,1,3,99,99,u,0.81425,1,3,3,0,3,0,1,,,,,,,,,,,,,,,,,,,,,,,,,,,,,,,,,,
,,,,,,,,,,,,,,,,,,,,1,3,2021-01-08_18h16.05.156,CL_C2S3,2020.1.3,Win32,60,,,,,h,1,0.847015,1,media/dfnb.png,1,"[1,-1,-1]",1,1,Symb,h,RT,0,0,4,1,3,99,99,h,0.847015,1,3,4,0,4,0,1,,,,,,,,,,,,,,,,,,,,,,,,,,,,,,,,,,
,,,,,,,,,,,,,,,,,,,,1,3,2021-01-08_18h16.05.156,CL_C2S3,2020.1.3,Win32,60,,,,,h,1,0.39686,1,media/dfnb.png,1,"[1,-1,-1]",1,1,Symb,h,RT,0,0,5,1,3,99,99,h,0.39686,1,3,5,0,5,0,1,,,,,,,,,,,,,,,,,,,,,,,,,,,,,,,,,,
,,,,,,,,,,,,,,,,,,,,1,3,2021-01-08_18h16.05.156,CL_C2S3,2020.1.3,Win32,60,,,,,u,1,0.51962,2,media/dknb.png,2,"[-1,1,-1]",5,0,Symb,u,RT,0,0,6,1,3,99,99,u,0.51962,1,3,6,0,6,0,1,,,,,,,,,,,,,,,,,,,,,,,,,,,,,,,,,,
,,,,,,,,,,,,,,,,,,,,1,3,2021-01-08_18h16.05.156,CL_C2S3,2020.1.3,Win32,60,,,,,u,1,0.822775,0,media/dcnb.png,1,"[1,-1,-1]",0,0,Symb,u,RT,0,0,7,1,3,99,99,u,0.822775,1,3,7,0,7,0,1,,,,,,,,,,,,,,,,,,,,,,,,,,,,,,,,,,
,,,,,,,,,,,,,,,,,,,,1,3,2021-01-08_18h16.05.156,CL_C2S3,2020.1.3,Win32,60,,,,,h,1,0.727965,0,media/dcnb.png,2,"[-1,1,-1]",3,0,Symb,h,RT,0,0,8,1,3,99,99,h,0.727965,1,3,8,0,8,0,1,,,,,,,,,,,,,,,,,,,,,,,,,,,,,,,,,,
,,,,,,,,,,,,,,,,,,,,1,3,2021-01-08_18h16.05.156,CL_C2S3,2020.1.3,Win32,60,,,,,i,1,0.90007,2,media/dknb.png,1,"[1,-1,-1]",2,0,Symb,i,RT,0,0,9,1,3,99,99,i,0.90007,1,3,9,0,9,0,1,,,,,,,,,,,,,,,,,,,,,,,,,,,,,,,,,,
,,,,,,,,,,,,,,,,,,,,1,3,2021-01-08_18h16.05.156,CL_C2S3,2020.1.3,Win32,60,,,,,i,1,0.625295,1,media/dfnb.png,2,"[-1,1,-1]",4,1,Symb,i,RT,0,0,10,1,3,99,99,i,0.625295,1,3,10,0,10,0,1,,,,,,,,,,,,,,,,,,,,,,,,,,,,,,,,,,
,,,,,,,,,,,,,,,,,,,,1,3,2021-01-08_18h16.05.156,CL_C2S3,2020.1.3,Win32,60,,,,,u,0,2.099055,2,media/dknb.png,1,"[1,-1,-1]",2,0,Symb,i,RT,0,0,11,1,3,99,99,u,2.099055,0,3,11,0,11,0,1,,,,,,,,,,,,,,,,,,,,,,,,,,,,,,,,,,
,,,,,,,,,,,,,,,,,,,,1,3,2021-01-08_18h16.05.156,CL_C2S3,2020.1.3,Win32,60,,,,,h,1,0.58482,1,media/dfnb.png,1,"[1,-1,-1]",1,1,Symb,h,RT,0,0,12,1,3,99,99,h,0.58482,1,3,12,0,12,0,1,,,,,,,,,,,,,,,,,,,,,,,,,,,,,,,,,,
,,,,,,,,,,,,,,,,,,,,1,3,2021-01-08_18h16.05.156,CL_C2S3,2020.1.3,Win32,60,,,,,h,1,1.955035,0,media/dcnb.png,2,"[-1,1,-1]",3,0,Symb,h,RT,0,0,13,1,3,99,99,h,1.955035,1,3,13,0,13,0,1,,,,,,,,,,,,,,,,,,,,,,,,,,,,,,,,,,
,,,,,,,,,,,,,,,,,,,,1,3,2021-01-08_18h16.05.156,CL_C2S3,2020.1.3,Win32,60,,,,,h,1,0.413045,0,media/dcnb.png,2,"[-1,1,-1]",3,0,Symb,h,RT,0,0,14,1,3,99,99,h,0.413045,1,3,14,0,14,0,1,,,,,,,,,,,,,,,,,,,,,,,,,,,,,,,,,,
,,,,,,,,,,,,,,,,,,,,1,3,2021-01-08_18h16.05.156,CL_C2S3,2020.1.3,Win32,60,,,,,u,1,0.752955,0,media/dcnb.png,1,"[1,-1,-1]",0,0,Symb,u,RT,0,0,15,1,3,99,99,u,0.752955,1,3,15,0,15,0,1,,,,,,,,,,,,,,,,,,,,,,,,,,,,,,,,,,
,,,,,,,,,,,,,,,,,,,,1,3,2021-01-08_18h16.05.156,CL_C2S3,2020.1.3,Win32,60,,,,,i,0,0.71525,1,media/dfnb.png,1,"[1,-1,-1]",1,1,Symb,h,RT,0,0,16,1,3,99,99,i,0.71525,0,3,16,0,16,0,1,,,,,,,,,,,,,,,,,,,,,,,,,,,,,,,,,,
,,,,,,,,,,,,,,,,,,,,1,3,2021-01-08_18h16.05.156,CL_C2S3,2020.1.3,Win32,60,,,,,i,1,0.823455,2,media/dknb.png,1,"[1,-1,-1]",2,0,Symb,i,RT,0,0,17,1,3,99,99,i,0.823455,1,3,17,0,17,0,1,,,,,,,,,,,,,,,,,,,,,,,,,,,,,,,,,,
,,,,,,,,,,,,,,,,,,,,1,3,2021-01-08_18h16.05.156,CL_C2S3,2020.1.3,Win32,60,,,,,h,0,2.28668,1,media/dfnb.png,2,"[-1,1,-1]",4,1,Symb,i,RT,0,0,18,1,3,99,99,h,2.28668,0,3,18,0,18,0,1,,,,,,,,,,,,,,,,,,,,,,,,,,,,,,,,,,
,,,,,,,,,,,,,,,,,,,,1,3,2021-01-08_18h16.05.156,CL_C2S3,2020.1.3,Win32,60,,,,,u,1,0.715725,0,media/dcnb.png,1,"[1,-1,-1]",0,0,Symb,u,RT,0,0,19,1,3,99,99,u,0.715725,1,3,19,0,19,0,1,,,,,,,,,,,,,,,,,,,,,,,,,,,,,,,,,,
,,,,,,,,,,,,,,,,,,,,1,3,2021-01-08_18h16.05.156,CL_C2S3,2020.1.3,Win32,60,,,,,u,1,1.02764,2,media/dknb.png,2,"[-1,1,-1]",5,0,Symb,u,RT,0,0,20,1,3,99,99,u,1.02764,1,3,20,0,20,0,1,,,,,,,,,,,,,,,,,,,,,,,,,,,,,,,,,,
,,,,,,,,,,,,,,,,,,,,1,3,2021-01-08_18h16.05.156,CL_C2S3,2020.1.3,Win32,60,,,,,u,1,0.39958,2,media/dknb.png,2,"[-1,1,-1]",5,0,Symb,u,RT,0,0,21,1,3,99,99,u,0.39958,1,3,21,0,21,0,1,,,,,,,,,,,,,,,,,,,,,,,,,,,,,,,,,,
,,,,,,,,,,,,,,,,,,,,1,3,2021-01-08_18h16.05.156,CL_C2S3,2020.1.3,Win32,60,,,,,i,1,0.7572,2,media/dknb.png,1,"[1,-1,-1]",2,0,Symb,i,RT,0,0,22,1,3,99,99,i,0.7572,1,3,22,0,22,0,1,,,,,,,,,,,,,,,,,,,,,,,,,,,,,,,,,,
,,,,,,,,,,,,,,,,,,,,1,3,2021-01-08_18h16.05.156,CL_C2S3,2020.1.3,Win32,60,,,,,i,1,1.595595,1,media/dfnb.png,2,"[-1,1,-1]",4,1,Symb,i,RT,0,0,23,1,3,99,99,i,1.595595,1,3,23,0,23,0,1,,,,,,,,,,,,,,,,,,,,,,,,,,,,,,,,,,
,,,,,,,,,,,,,,,,,,,,1,3,2021-01-08_18h16.05.156,CL_C2S3,2020.1.3,Win32,60,,,,,u,1,0.68253,2,media/dknb.png,2,"[-1,1,-1]",5,0,Symb,u,RT,0,0,24,1,3,99,99,u,0.68253,1,3,24,0,24,0,1,,,,,,,,,,,,,,,,,,,,,,,,,,,,,,,,,,
,,,,,,,,,,,,,,,,,,,,1,3,2021-01-08_18h16.05.156,CL_C2S3,2020.1.3,Win32,60,,,,,i,1,0.715675,2,media/dknb.png,1,"[1,-1,-1]",2,0,Symb,i,RT,0,0,25,1,3,99,99,i,0.715675,1,3,25,0,25,0,1,,,,,,,,,,,,,,,,,,,,,,,,,,,,,,,,,,
,,,,,,,,,,,,,,,,,,,,1,3,2021-01-08_18h16.05.156,CL_C2S3,2020.1.3,Win32,60,,,,,i,1,1.06145,1,media/dfnb.png,2,"[-1,1,-1]",4,1,Symb,i,RT,0,0,26,1,3,99,99,i,1.06145,1,3,26,0,26,0,1,,,,,,,,,,,,,,,,,,,,,,,,,,,,,,,,,,
,,,,,,,,,,,,,,,,,,,,1,3,2021-01-08_18h16.05.156,CL_C2S3,2020.1.3,Win32,60,,,,,h,1,1.40094,0,media/dcnb.png,2,"[-1,1,-1]",3,0,Symb,h,RT,0,0,27,1,3,99,99,h,1.40094,1,3,27,0,27,0,1,,,,,,,,,,,,,,,,,,,,,,,,,,,,,,,,,,
,,,,,,,,,,,,,,,,,,,,1,3,2021-01-08_18h16.05.156,CL_C2S3,2020.1.3,Win32,60,,,,,u,1,1.06208,0,media/dcnb.png,1,"[1,-1,-1]",0,0,Symb,u,RT,0,0,28,1,3,99,99,u,1.06208,1,3,28,0,28,0,1,,,,,,,,,,,,,,,,,,,,,,,,,,,,,,,,,,
,,,,,,,,,,,,,,,,,,,,1,3,2021-01-08_18h16.05.156,CL_C2S3,2020.1.3,Win32,60,,,,,h,1,0.5643,1,media/dfnb.png,1,"[1,-1,-1]",1,1,Symb,h,RT,0,0,29,1,3,99,99,h,0.5643,1,3,29,0,29,0,1,,,,,,,,,,,,,,,,,,,,,,,,,,,,,,,,,,
,,,,,,,,,,,,,,,,,,,,1,3,2021-01-08_18h16.05.156,CL_C2S3,2020.1.3,Win32,60,,,,,h,1,0.437455,1,media/dfnb.png,1,"[1,-1,-1]",1,1,Symb,h,RT,0,0,30,1,3,99,99,h,0.437455,1,3,30,0,30,0,1,,,,,,,,,,,,,,,,,,,,,,,,,,,,,,,,,,
,,,,,,,,,,,,,,,,,,,,1,3,2021-01-08_18h16.05.156,CL_C2S3,2020.1.3,Win32,60,,,,,u,1,0.47423,2,media/dknb.png,2,"[-1,1,-1]",5,0,Symb,u,RT,0,0,31,1,3,99,99,u,0.47423,1,3,31,0,31,0,1,,,,,,,,,,,,,,,,,,,,,,,,,,,,,,,,,,
,,,,,,,,,,,,,,,,,,,,1,3,2021-01-08_18h16.05.156,CL_C2S3,2020.1.3,Win32,60,,,,,u,1,0.38209,0,media/dcnb.png,1,"[1,-1,-1]",0,0,Symb,u,RT,0,0,32,1,3,99,99,u,0.38209,1,3,32,0,32,0,1,,,,,,,,,,,,,,,,,,,,,,,,,,,,,,,,,,
,,,,,,,,,,,,,,,,,,,,1,3,2021-01-08_18h16.05.156,CL_C2S3,2020.1.3,Win32,60,,,,,h,1,0.675475,1,media/dfnb.png,1,"[1,-1,-1]",1,1,Symb,h,RT,0,0,33,1,3,99,99,h,0.675475,1,3,33,0,33,0,1,,,,,,,,,,,,,,,,,,,,,,,,,,,,,,,,,,
,,,,,,,,,,,,,,,,,,,,1,3,2021-01-08_18h16.05.156,CL_C2S3,2020.1.3,Win32,60,,,,,u,1,0.670355,0,media/dcnb.png,1,"[1,-1,-1]",0,0,Symb,u,RT,0,0,34,1,3,99,99,u,0.670355,1,3,34,0,34,0,1,,,,,,,,,,,,,,,,,,,,,,,,,,,,,,,,,,
,,,,,,,,,,,,,,,,,,,,1,3,2021-01-08_18h16.05.156,CL_C2S3,2020.1.3,Win32,60,,,,,i,1,0.682025,2,media/dknb.png,1,"[1,-1,-1]",2,0,Symb,i,RT,0,0,35,1,3,99,99,i,0.682025,1,3,35,0,35,0,1,,,,,,,,,,,,,,,,,,,,,,,,,,,,,,,,,,
,,,,,,,,,,,,,,,,,,,,1,3,2021-01-08_18h16.05.156,CL_C2S3,2020.1.3,Win32,60,,,,,h,1,0.66435,0,media/dcnb.png,2,"[-1,1,-1]",3,0,Symb,h,RT,0,0,36,1,3,99,99,h,0.66435,1,3,36,0,36,0,1,,,,,,,,,,,,,,,,,,,,,,,,,,,,,,,,,,
,,,,,,,,,,,,,,,,,,,,1,3,2021-01-08_18h16.05.156,CL_C2S3,2020.1.3,Win32,60,,,,,u,1,0.74785,2,media/dknb.png,2,"[-1,1,-1]",5,0,Symb,u,RT,0,0,37,1,3,99,99,u,0.74785,1,3,37,0,37,0,1,,,,,,,,,,,,,,,,,,,,,,,,,,,,,,,,,,
,,,,,,,,,,,,,,,,,,,,1,3,2021-01-08_18h16.05.156,CL_C2S3,2020.1.3,Win32,60,,,,,h,1,0.809215,0,media/dcnb.png,2,"[-1,1,-1]",3,0,Symb,h,RT,0,0,38,1,3,99,99,h,0.809215,1,3,38,0,38,0,1,,,,,,,,,,,,,,,,,,,,,,,,,,,,,,,,,,
,,,,,,,,,,,,,,,,,,,,1,3,2021-01-08_18h16.05.156,CL_C2S3,2020.1.3,Win32,60,,,,,i,1,1.191525,1,media/dfnb.png,2,"[-1,1,-1]",4,1,Symb,i,RT,0,0,39,1,3,99,99,i,1.191525,1,3,39,0,39,0,1,,,,,,,,,,,,,,,,,,,,,,,,,,,,,,,,,,
,,,,,,,,,,,,,,,,,,,,1,3,2021-01-08_18h16.05.156,CL_C2S3,2020.1.3,Win32,60,,,,,i,1,0.463615,1,media/dfnb.png,2,"[-1,1,-1]",4,1,Symb,i,RT,0,0,40,1,3,99,99,i,0.463615,1,3,40,0,40,0,1,,,,,,,,,,,,,,,,,,,,,,,,,,,,,,,,,,
,,,,,,,,,,,,,,,,,,,,1,3,2021-01-08_18h16.05.156,CL_C2S3,2020.1.3,Win32,60,,,,,i,1,1.741065,2,media/dknb.png,1,"[1,-1,-1]",2,0,Symb,i,RT,0,0,41,1,3,99,99,i,1.741065,1,3,41,0,41,0,1,,,,,,,,,,,,,,,,,,,,,,,,,,,,,,,,,,
,,,,,,,,,,,,,,,,,,,,1,3,2021-01-08_18h16.05.156,CL_C2S3,2020.1.3,Win32,60,,,,,h,0,2.92862,1,media/dfnb.png,2,"[-1,1,-1]",4,1,Symb,i,RT,0,0,42,1,3,99,99,h,2.92862,0,3,42,0,42,0,1,,,,,,,,,,,,,,,,,,,,,,,,,,,,,,,,,,
,,,,,,,,,,,,,,,,,,,,1,3,2021-01-08_18h16.05.156,CL_C2S3,2020.1.3,Win32,60,,,,,u,1,0.663915,0,media/dcnb.png,1,"[1,-1,-1]",0,0,Symb,u,RT,0,0,43,1,3,99,99,u,0.663915,1,3,43,0,43,0,1,,,,,,,,,,,,,,,,,,,,,,,,,,,,,,,,,,
,,,,,,,,,,,,,,,,,,,,1,3,2021-01-08_18h16.05.156,CL_C2S3,2020.1.3,Win32,60,,,,,h,0,0.814615,1,media/dfnb.png,2,"[-1,1,-1]",4,1,Symb,i,RT,0,0,44,1,3,99,99,h,0.814615,0,3,44,0,44,0,1,,,,,,,,,,,,,,,,,,,,,,,,,,,,,,,,,,
,,,,,,,,,,,,,,,,,,,,1,3,2021-01-08_18h16.05.156,CL_C2S3,2020.1.3,Win32,60,,,,,u,1,0.70837,2,media/dknb.png,2,"[-1,1,-1]",5,0,Symb,u,RT,0,0,45,1,3,99,99,u,0.70837,1,3,45,0,45,0,1,,,,,,,,,,,,,,,,,,,,,,,,,,,,,,,,,,
,,,,,,,,,,,,,,,,,,,,1,3,2021-01-08_18h16.05.156,CL_C2S3,2020.1.3,Win32,60,,,,,h,1,0.58274,1,media/dfnb.png,1,"[1,-1,-1]",1,1,Symb,h,RT,0,0,46,1,3,99,99,h,0.58274,1,3,46,0,46,0,1,,,,,,,,,,,,,,,,,,,,,,,,,,,,,,,,,,
,,,,,,,,,,,,,,,,,,,,1,3,2021-01-08_18h16.05.156,CL_C2S3,2020.1.3,Win32,60,,,,,u,1,0.81496,2,media/dknb.png,2,"[-1,1,-1]",5,0,Symb,u,RT,0,0,47,1,3,99,99,u,0.81496,1,3,47,0,47,0,1,,,,,,,,,,,,,,,,,,,,,,,,,,,,,,,,,,
,,,,,,,,,,,,,,,,,,,,1,3,2021-01-08_18h16.05.156,CL_C2S3,2020.1.3,Win32,60,,,,,i,1,0.61675,2,media/dknb.png,1,"[1,-1,-1]",2,0,Symb,i,RT,0,0,48,1,3,99,99,i,0.61675,1,3,48,0,48,0,1,,,,,,,,,,,,,,,,,,,,,,,,,,,,,,,,,,
,,,,,,,,,,,,,,,,,,,,1,3,2021-01-08_18h16.05.156,CL_C2S3,2020.1.3,Win32,60,,,,,i,1,0.41915,2,media/dknb.png,1,"[1,-1,-1]",2,0,Symb,i,RT,0,0,49,1,3,99,99,i,0.41915,1,3,49,0,49,0,1,,,,,,,,,,,,,,,,,,,,,,,,,,,,,,,,,,
,,,,,,,,,,,,,,,,,,,,1,3,2021-01-08_18h16.05.156,CL_C2S3,2020.1.3,Win32,60,,,,,h,1,1.421875,0,media/dcnb.png,2,"[-1,1,-1]",3,0,Symb,h,RT,0,0,50,1,3,99,99,h,1.421875,1,3,50,0,50,0,1,,,,,,,,,,,,,,,,,,,,,,,,,,,,,,,,,,
,,,,,,,,,,,,,,,,,,,,1,3,2021-01-08_18h16.05.156,CL_C2S3,2020.1.3,Win32,60,,,,,h,1,0.83982,1,media/dfnb.png,1,"[1,-1,-1]",1,1,Symb,h,RT,0,0,51,1,3,99,99,h,0.83982,1,3,51,0,51,0,1,,,,,,,,,,,,,,,,,,,,,,,,,,,,,,,,,,
,,,,,,,,,,,,,,,,,,,,1,3,2021-01-08_18h16.05.156,CL_C2S3,2020.1.3,Win32,60,,,,,h,0,0.915055,0,media/dcnb.png,1,"[1,-1,-1]",0,0,Symb,u,RT,0,0,52,1,3,99,99,h,0.915055,0,3,52,0,52,0,1,,,,,,,,,,,,,,,,,,,,,,,,,,,,,,,,,,
,,,,,,,,,,,,,,,,,,,,1,3,2021-01-08_18h16.05.156,CL_C2S3,2020.1.3,Win32,60,,,,,h,1,0.766955,0,media/dcnb.png,2,"[-1,1,-1]",3,0,Symb,h,RT,0,0,53,1,3,99,99,h,0.766955,1,3,53,0,53,0,1,,,,,,,,,,,,,,,,,,,,,,,,,,,,,,,,,,
,,,,,,,,,,,,,,,,,,,,1,3,2021-01-08_18h16.05.156,CL_C2S3,2020.1.3,Win32,60,,,,,h,1,0.388365,0,media/dcnb.png,2,"[-1,1,-1]",3,0,Symb,h,RT,0,0,54,1,3,99,99,h,0.388365,1,3,54,0,54,0,1,,,,,,,,,,,,,,,,,,,,,,,,,,,,,,,,,,
,,,,,,,,,,,,,,,,,,,,1,3,2021-01-08_18h16.05.156,CL_C2S3,2020.1.3,Win32,60,,,,,u,1,0.95103,0,media/dcnb.png,1,"[1,-1,-1]",0,0,Symb,u,RT,0,0,55,1,3,99,99,u,0.95103,1,3,55,0,55,0,1,,,,,,,,,,,,,,,,,,,,,,,,,,,,,,,,,,
,,,,,,,,,,,,,,,,,,,,1,3,2021-01-08_18h16.05.156,CL_C2S3,2020.1.3,Win32,60,,,,,i,1,0.955415,1,media/dfnb.png,2,"[-1,1,-1]",4,1,Symb,i,RT,0,0,56,1,3,99,99,i,0.955415,1,3,56,0,56,0,1,,,,,,,,,,,,,,,,,,,,,,,,,,,,,,,,,,
,,,,,,,,,,,,,,,,,,,,1,3,2021-01-08_18h16.05.156,CL_C2S3,2020.1.3,Win32,60,,,,,h,1,0.57092,1,media/dfnb.png,1,"[1,-1,-1]",1,1,Symb,h,RT,0,0,57,1,3,99,99,h,0.57092,1,3,57,0,57,0,1,,,,,,,,,,,,,,,,,,,,,,,,,,,,,,,,,,
,,,,,,,,,,,,,,,,,,,,1,3,2021-01-08_18h16.05.156,CL_C2S3,2020.1.3,Win32,60,,,,,u,1,0.638335,2,media/dknb.png,2,"[-1,1,-1]",5,0,Symb,u,RT,0,0,58,1,3,99,99,u,0.638335,1,3,58,0,58,0,1,,,,,,,,,,,,,,,,,,,,,,,,,,,,,,,,,,
,,,,,,,,,,,,,,,,,,,,1,3,2021-01-08_18h16.05.156,CL_C2S3,2020.1.3,Win32,60,,,,,i,1,0.566355,2,media/dknb.png,1,"[1,-1,-1]",2,0,Symb,i,RT,0,0,59,1,3,99,99,i,0.566355,1,3,59,0,59,0,1,,,,,,,,,,,,,,,,,,,,,,,,,,,,,,,,,,
,,,,,,,,,,,,,,,,,,,,1,3,2021-01-08_18h16.05.156,CL_C2S3,2020.1.3,Win32,60,,,,,h,1,0.633815,0,media/dcnb.png,2,"[-1,1,-1]",3,0,Symb,h,RT,0,0,60,1,3,99,99,h,0.633815,1,3,60,0,60,0,1,,,,,,,,,,,,,,,,,,,,,,,,,,,,,,,,,,
,,,,,,,,,,,,,,,,,,,,1,3,2021-01-08_18h16.05.156,CL_C2S3,2020.1.3,Win32,60,,,,,u,1,0.62862,2,media/dknb.png,2,"[-1,1,-1]",5,0,Symb,u,RT,0,0,61,1,3,99,99,u,0.62862,1,3,61,0,61,0,1,,,,,,,,,,,,,,,,,,,,,,,,,,,,,,,,,,
,,,,,,,,,,,,,,,,,,,,1,3,2021-01-08_18h16.05.156,CL_C2S3,2020.1.3,Win32,60,,,,,i,1,0.579805,2,media/dknb.png,1,"[1,-1,-1]",2,0,Symb,i,RT,0,0,62,1,3,99,99,i,0.579805,1,3,62,0,62,0,1,,,,,,,,,,,,,,,,,,,,,,,,,,,,,,,,,,
,,,,,,,,,,,,,,,,,,,,1,3,2021-01-08_18h16.05.156,CL_C2S3,2020.1.3,Win32,60,,,,,i,1,0.36669,2,media/dknb.png,1,"[1,-1,-1]",2,0,Symb,i,RT,0,0,63,1,3,99,99,i,0.36669,1,3,63,0,63,0,1,,,,,,,,,,,,,,,,,,,,,,,,,,,,,,,,,,
,,,,,,,,,,,,,,,,,,,,1,3,2021-01-08_18h16.05.156,CL_C2S3,2020.1.3,Win32,60,,,,,h,1,0.47284,1,media/dfnb.png,1,"[1,-1,-1]",1,1,Symb,h,RT,0,0,64,1,3,99,99,h,0.47284,1,3,64,0,64,0,1,,,,,,,,,,,,,,,,,,,,,,,,,,,,,,,,,,
,,,,,,,,,,,,,,,,,,,,1,3,2021-01-08_18h16.05.156,CL_C2S3,2020.1.3,Win32,60,,,,,h,1,0.430225,1,media/dfnb.png,1,"[1,-1,-1]",1,1,Symb,h,RT,0,0,65,1,3,99,99,h,0.430225,1,3,65,0,65,0,1,,,,,,,,,,,,,,,,,,,,,,,,,,,,,,,,,,
,,,,,,,,,,,,,,,,,,,,1,3,2021-01-08_18h16.05.156,CL_C2S3,2020.1.3,Win32,60,,,,,h,1,0.659885,0,media/dcnb.png,2,"[-1,1,-1]",3,0,Symb,h,RT,0,0,66,1,3,99,99,h,0.659885,1,3,66,0,66,0,1,,,,,,,,,,,,,,,,,,,,,,,,,,,,,,,,,,
,,,,,,,,,,,,,,,,,,,,1,3,2021-01-08_18h16.05.156,CL_C2S3,2020.1.3,Win32,60,,,,,i,1,0.35957,1,media/dfnb.png,2,"[-1,1,-1]",4,1,Symb,i,RT,0,0,67,1,3,99,99,i,0.35957,1,3,67,0,67,0,1,,,,,,,,,,,,,,,,,,,,,,,,,,,,,,,,,,
,,,,,,,,,,,,,,,,,,,,1,3,2021-01-08_18h16.05.156,CL_C2S3,2020.1.3,Win32,60,,,,,u,1,0.712855,0,media/dcnb.png,1,"[1,-1,-1]",0,0,Symb,u,RT,0,0,68,1,3,99,99,u,0.712855,1,3,68,0,68,0,1,,,,,,,,,,,,,,,,,,,,,,,,,,,,,,,,,,
,,,,,,,,,,,,,,,,,,,,1,3,2021-01-08_18h16.05.156,CL_C2S3,2020.1.3,Win32,60,,,,,u,1,0.47861,0,media/dcnb.png,1,"[1,-1,-1]",0,0,Symb,u,RT,0,0,69,1,3,99,99,u,0.47861,1,3,69,0,69,0,1,,,,,,,,,,,,,,,,,,,,,,,,,,,,,,,,,,
,,,,,,,,,,,,,,,,,,,,1,3,2021-01-08_18h16.05.156,CL_C2S3,2020.1.3,Win32,60,,,,,i,1,0.73177,1,media/dfnb.png,2,"[-1,1,-1]",4,1,Symb,i,RT,0,0,70,1,3,99,99,i,0.73177,1,3,70,0,70,0,1,,,,,,,,,,,,,,,,,,,,,,,,,,,,,,,,,,
,,,,,,,,,,,,,,,,,,,,1,3,2021-01-08_18h16.05.156,CL_C2S3,2020.1.3,Win32,60,,,,,u,1,1.0231,2,media/dknb.png,2,"[-1,1,-1]",5,0,Symb,u,RT,0,0,71,1,3,99,99,u,1.0231,1,3,71,0,71,0,1,,,,,,,,,,,,,,,,,,,,,,,,,,,,,,,,,,
,,,,,,,,,,,,,,,,,,,,1,3,2021-01-08_18h16.05.156,CL_C2S3,2020.1.3,Win32,60,,,,,h,0,0.82414,0,media/dcnb.png,1,"[1,-1,-1]",0,0,Symb,u,RT,0,0,72,1,3,99,99,h,0.82414,0,3,72,0,72,0,1,,,,,,,,,,,,,,,,,,,,,,,,,,,,,,,,,,
,,,,,,,,,,,,,,,,,,,,1,3,2021-01-08_18h16.05.156,CL_C2S3,2020.1.3,Win32,60,,,,,h,1,1.20742,1,media/dfnb.png,1,"[1,-1,-1]",1,1,Symb,h,RT,0,0,73,1,3,99,99,h,1.20742,1,3,73,0,73,0,1,,,,,,,,,,,,,,,,,,,,,,,,,,,,,,,,,,
,,,,,,,,,,,,,,,,,,,,1,3,2021-01-08_18h16.05.156,CL_C2S3,2020.1.3,Win32,60,,,,,i,1,0.792745,2,media/dknb.png,1,"[1,-1,-1]",2,0,Symb,i,RT,0,0,74,1,3,99,99,i,0.792745,1,3,74,0,74,0,1,,,,,,,,,,,,,,,,,,,,,,,,,,,,,,,,,,
,,,,,,,,,,,,,,,,,,,,1,3,2021-01-08_18h16.05.156,CL_C2S3,2020.1.3,Win32,60,,,,,h,1,0.866515,0,media/dcnb.png,2,"[-1,1,-1]",3,0,Symb,h,RT,0,0,75,1,3,99,99,h,0.866515,1,3,75,0,75,0,1,,,,,,,,,,,,,,,,,,,,,,,,,,,,,,,,,,
,,,,,,,,,,,,,,,,,,,,1,3,2021-01-08_18h16.05.156,CL_C2S3,2020.1.3,Win32,60,,,,,h,1,0.461085,0,media/dcnb.png,2,"[-1,1,-1]",3,0,Symb,h,RT,0,0,76,1,3,99,99,h,0.461085,1,3,76,0,76,0,1,,,,,,,,,,,,,,,,,,,,,,,,,,,,,,,,,,
,,,,,,,,,,,,,,,,,,,,1,3,2021-01-08_18h16.05.156,CL_C2S3,2020.1.3,Win32,60,,,,,h,1,0.654095,1,media/dfnb.png,1,"[1,-1,-1]",1,1,Symb,h,RT,0,0,77,1,3,99,99,h,0.654095,1,3,77,0,77,0,1,,,,,,,,,,,,,,,,,,,,,,,,,,,,,,,,,,
,,,,,,,,,,,,,,,,,,,,1,3,2021-01-08_18h16.05.156,CL_C2S3,2020.1.3,Win32,60,,,,,u,1,0.906575,2,media/dknb.png,2,"[-1,1,-1]",5,0,Symb,u,RT,0,0,78,1,3,99,99,u,0.906575,1,3,78,0,78,0,1,,,,,,,,,,,,,,,,,,,,,,,,,,,,,,,,,,
,,,,,,,,,,,,,,,,,,,,1,3,2021-01-08_18h16.05.156,CL_C2S3,2020.1.3,Win32,60,,,,,u,1,0.36471,2,media/dknb.png,2,"[-1,1,-1]",5,0,Symb,u,RT,0,0,79,1,3,99,99,u,0.36471,1,3,79,0,79,0,1,,,,,,,,,,,,,,,,,,,,,,,,,,,,,,,,,,
,,,,,,,,,,,,,,,,,,,,1,3,2021-01-08_18h16.05.156,CL_C2S3,2020.1.3,Win32,60,,,,,u,0,0.4044,2,media/dknb.png,1,"[1,-1,-1]",2,0,Symb,i,RT,0,0,80,1,3,99,99,u,0.4044,0,3,80,0,80,0,1,,,,,,,,,,,,,,,,,,,,,,,,,,,,,,,,,,
,,,,,,,,,,,,,,,,,,,,1,3,2021-01-08_18h16.05.156,CL_C2S3,2020.1.3,Win32,60,,,,,i,1,1.29794,1,media/dfnb.png,2,"[-1,1,-1]",4,1,Symb,i,RT,0,0,81,1,3,99,99,i,1.29794,1,3,81,0,81,0,1,,,,,,,,,,,,,,,,,,,,,,,,,,,,,,,,,,
,,,,,,,,,,,,,,,,,,,,1,3,2021-01-08_18h16.05.156,CL_C2S3,2020.1.3,Win32,60,,,,,i,1,0.35877,1,media/dfnb.png,2,"[-1,1,-1]",4,1,Symb,i,RT,0,0,82,1,3,99,99,i,0.35877,1,3,82,0,82,0,1,,,,,,,,,,,,,,,,,,,,,,,,,,,,,,,,,,
,,,,,,,,,,,,,,,,,,,,1,3,2021-01-08_18h16.05.156,CL_C2S3,2020.1.3,Win32,60,,,,,u,1,0.55238,0,media/dcnb.png,1,"[1,-1,-1]",0,0,Symb,u,RT,0,0,83,1,3,99,99,u,0.55238,1,3,83,0,83,0,1,,,,,,,,,,,,,,,,,,,,,,,,,,,,,,,,,,
,,,,,,,,,,,,,,,,,,,,1,3,2021-01-08_18h16.05.156,CL_C2S3,2020.1.3,Win32,60,,,,,h,1,1.19558,0,media/dcnb.png,2,"[-1,1,-1]",3,0,Symb,h,RT,0,0,84,1,3,99,99,h,1.19558,1,3,84,0,84,0,1,,,,,,,,,,,,,,,,,,,,,,,,,,,,,,,,,,
,,,,,,,,,,,,,,,,,,,,1,3,2021-01-08_18h16.05.156,CL_C2S3,2020.1.3,Win32,60,,,,,h,0,0.93903,1,media/dfnb.png,2,"[-1,1,-1]",4,1,Symb,i,RT,0,0,85,1,3,99,99,h,0.93903,0,3,85,0,85,0,1,,,,,,,,,,,,,,,,,,,,,,,,,,,,,,,,,,
,,,,,,,,,,,,,,,,,,,,1,3,2021-01-08_18h16.05.156,CL_C2S3,2020.1.3,Win32,60,,,,,u,1,1.629265,0,media/dcnb.png,1,"[1,-1,-1]",0,0,Symb,u,RT,0,0,86,1,3,99,99,u,1.629265,1,3,86,0,86,0,1,,,,,,,,,,,,,,,,,,,,,,,,,,,,,,,,,,
,,,,,,,,,,,,,,,,,,,,1,3,2021-01-08_18h16.05.156,CL_C2S3,2020.1.3,Win32,60,,,,,h,1,0.549545,1,media/dfnb.png,1,"[1,-1,-1]",1,1,Symb,h,RT,0,0,87,1,3,99,99,h,0.549545,1,3,87,0,87,0,1,,,,,,,,,,,,,,,,,,,,,,,,,,,,,,,,,,
,,,,,,,,,,,,,,,,,,,,1,3,2021-01-08_18h16.05.156,CL_C2S3,2020.1.3,Win32,60,,,,,u,1,0.56871,2,media/dknb.png,2,"[-1,1,-1]",5,0,Symb,u,RT,0,0,88,1,3,99,99,u,0.56871,1,3,88,0,88,0,1,,,,,,,,,,,,,,,,,,,,,,,,,,,,,,,,,,
,,,,,,,,,,,,,,,,,,,,1,3,2021-01-08_18h16.05.156,CL_C2S3,2020.1.3,Win32,60,,,,,i,1,0.529285,2,media/dknb.png,1,"[1,-1,-1]",2,0,Symb,i,RT,0,0,89,1,3,99,99,i,0.529285,1,3,89,0,89,0,1,,,,,,,,,,,,,,,,,,,,,,,,,,,,,,,,,,
,,,,,,,,,,,,,,,,,,,,1,3,2021-01-08_18h16.05.156,CL_C2S3,2020.1.3,Win32,60,,,,,h,1,0.73377,1,media/dfnb.png,1,"[1,-1,-1]",1,1,Symb,h,RT,0,0,90,1,3,99,99,h,0.73377,1,3,90,0,90,0,1,,,,,,,,,,,,,,,,,,,,,,,,,,,,,,,,,,
,,,,,,,,,,,,,,,,,,,,1,3,2021-01-08_18h16.05.156,CL_C2S3,2020.1.3,Win32,60,,,,,u,1,0.63405,0,media/dcnb.png,1,"[1,-1,-1]",0,0,Symb,u,RT,0,0,91,1,3,99,99,u,0.63405,1,3,91,0,91,0,1,,,,,,,,,,,,,,,,,,,,,,,,,,,,,,,,,,
,,,,,,,,,,,,,,,,,,,,1,3,2021-01-08_18h16.05.156,CL_C2S3,2020.1.3,Win32,60,,,,,i,1,0.860715,2,media/dknb.png,1,"[1,-1,-1]",2,0,Symb,i,RT,0,0,92,1,3,99,99,i,0.860715,1,3,92,0,92,0,1,,,,,,,,,,,,,,,,,,,,,,,,,,,,,,,,,,
,,,,,,,,,,,,,,,,,,,,1,3,2021-01-08_18h16.05.156,CL_C2S3,2020.1.3,Win32,60,,,,,u,0,0.41771,2,media/dknb.png,1,"[1,-1,-1]",2,0,Symb,i,RT,0,0,93,1,3,99,99,u,0.41771,0,3,93,0,93,0,1,,,,,,,,,,,,,,,,,,,,,,,,,,,,,,,,,,
,,,,,,,,,,,,,,,,,,,,1,3,2021-01-08_18h16.05.156,CL_C2S3,2020.1.3,Win32,60,,,,,h,0,0.789255,1,media/dfnb.png,2,"[-1,1,-1]",4,1,Symb,i,RT,0,0,94,1,3,99,99,h,0.789255,0,3,94,0,94,0,1,,,,,,,,,,,,,,,,,,,,,,,,,,,,,,,,,,
,,,,,,,,,,,,,,,,,,,,1,3,2021-01-08_18h16.05.156,CL_C2S3,2020.1.3,Win32,60,,,,,u,1,0.74419,2,media/dknb.png,2,"[-1,1,-1]",5,0,Symb,u,RT,0,0,95,1,3,99,99,u,0.74419,1,3,95,0,95,0,1,,,,,,,,,,,,,,,,,,,,,,,,,,,,,,,,,,
,,,,,,,,,,,,,,,,,,,,1,3,2021-01-08_18h16.05.156,CL_C2S3,2020.1.3,Win32,60,,,,,h,0,1.4868,0,media/dcnb.png,1,"[1,-1,-1]",0,0,Symb,u,RT,0,0,96,1,3,99,99,h,1.4868,0,3,96,0,96,0,1,,,,,,,,,,,,,,,,,,,,,,,,,,,,,,,,,,
,,,,,,,,,,,,,,,,,,,,1,3,2021-01-08_18h16.05.156,CL_C2S3,2020.1.3,Win32,60,,,,,h,1,1.39705,1,media/dfnb.png,1,"[1,-1,-1]",1,1,Symb,h,RT,0,0,97,1,3,99,99,h,1.39705,1,3,97,0,97,0,1,,,,,,,,,,,,,,,,,,,,,,,,,,,,,,,,,,
,,,,,,,,,,,,,,,,,,,,1,3,2021-01-08_18h16.05.156,CL_C2S3,2020.1.3,Win32,60,,,,,h,1,0.95428,0,media/dcnb.png,2,"[-1,1,-1]",3,0,Symb,h,RT,0,0,98,1,3,99,99,h,0.95428,1,3,98,0,98,0,1,,,,,,,,,,,,,,,,,,,,,,,,,,,,,,,,,,
,,,,,,,,,,,,,,,,,,,,1,3,2021-01-08_18h16.05.156,CL_C2S3,2020.1.3,Win32,60,,,,,i,1,1.36147,1,media/dfnb.png,2,"[-1,1,-1]",4,1,Symb,i,RT,0,0,99,1,3,99,99,i,1.36147,1,3,99,0,99,0,1,,,,,,,,,,,,,,,,,,,,,,,,,,,,,,,,,,
,,,,,,,,,,,,,,,,,,,,1,3,2021-01-08_18h16.05.156,CL_C2S3,2020.1.3,Win32,60,,,,,u,1,0.83876,2,media/dknb.png,2,"[-1,1,-1]",5,0,Symb,u,RT,0,0,100,1,3,99,99,u,0.83876,1,3,100,0,100,0,1,,,,,,,,,,,,,,,,,,,,,,,,,,,,,,,,,,
,,,,,,,,,,,,,,,,,,,,1,3,2021-01-08_18h16.05.156,CL_C2S3,2020.1.3,Win32,60,,,,,h,1,1.38398,0,media/dcnb.png,2,"[-1,1,-1]",3,0,Symb,h,RT,0,0,101,1,3,99,99,h,1.38398,1,3,101,0,101,0,1,,,,,,,,,,,,,,,,,,,,,,,,,,,,,,,,,,
,,,,,,,,,,,,,,,,,,,,1,3,2021-01-08_18h16.05.156,CL_C2S3,2020.1.3,Win32,60,,,,,h,1,0.617445,0,media/dcnb.png,2,"[-1,1,-1]",3,0,Symb,h,RT,0,0,102,1,3,99,99,h,0.617445,1,3,102,0,102,0,1,,,,,,,,,,,,,,,,,,,,,,,,,,,,,,,,,,
,,,,,,,,,,,,,,,,,,,,1,3,2021-01-08_18h16.05.156,CL_C2S3,2020.1.3,Win32,60,,,,,u,1,0.99297,2,media/dknb.png,2,"[-1,1,-1]",5,0,Symb,u,RT,0,0,103,1,3,99,99,u,0.99297,1,3,103,0,103,0,1,,,,,,,,,,,,,,,,,,,,,,,,,,,,,,,,,,
,,,,,,,,,,,,,,,,,,,,1,3,2021-01-08_18h16.05.156,CL_C2S3,2020.1.3,Win32,60,,,,,u,1,1.902635,0,media/dcnb.png,1,"[1,-1,-1]",0,0,Symb,u,RT,0,0,104,1,3,99,99,u,1.902635,1,3,104,0,104,0,1,,,,,,,,,,,,,,,,,,,,,,,,,,,,,,,,,,
,,,,,,,,,,,,,,,,,,,,1,3,2021-01-08_18h16.05.156,CL_C2S3,2020.1.3,Win32,60,,,,,i,1,1.019485,1,media/dfnb.png,2,"[-1,1,-1]",4,1,Symb,i,RT,0,0,105,1,3,99,99,i,1.019485,1,3,105,0,105,0,1,,,,,,,,,,,,,,,,,,,,,,,,,,,,,,,,,,
,,,,,,,,,,,,,,,,,,,,1,3,2021-01-08_18h16.05.156,CL_C2S3,2020.1.3,Win32,60,,,,,u,1,1.03438,0,media/dcnb.png,1,"[1,-1,-1]",0,0,Symb,u,RT,0,0,106,1,3,99,99,u,1.03438,1,3,106,0,106,0,1,,,,,,,,,,,,,,,,,,,,,,,,,,,,,,,,,,
,,,,,,,,,,,,,,,,,,,,1,3,2021-01-08_18h16.05.156,CL_C2S3,2020.1.3,Win32,60,,,,,h,1,0.74118,1,media/dfnb.png,1,"[1,-1,-1]",1,1,Symb,h,RT,0,0,107,1,3,99,99,h,0.74118,1,3,107,0,107,0,1,,,,,,,,,,,,,,,,,,,,,,,,,,,,,,,,,,
,,,,,,,,,,,,,,,,,,,,1,3,2021-01-08_18h16.05.156,CL_C2S3,2020.1.3,Win32,60,,,,,i,1,3.920015,1,media/dfnb.png,2,"[-1,1,-1]",4,1,Symb,i,RT,0,0,108,1,3,99,99,i,3.920015,1,3,108,0,108,0,1,,,,,,,,,,,,,,,,,,,,,,,,,,,,,,,,,,
,,,,,,,,,,,,,,,,,,,,1,3,2021-01-08_18h16.05.156,CL_C2S3,2020.1.3,Win32,60,,,,,u,1,1.89667,2,media/dknb.png,2,"[-1,1,-1]",5,0,Symb,u,RT,0,0,109,1,3,99,99,u,1.89667,1,3,109,0,109,0,1,,,,,,,,,,,,,,,,,,,,,,,,,,,,,,,,,,
,,,,,,,,,,,,,,,,,,,,1,3,2021-01-08_18h16.05.156,CL_C2S3,2020.1.3,Win32,60,,,,,h,1,2.968485,0,media/dcnb.png,2,"[-1,1,-1]",3,0,Symb,h,RT,0,0,110,1,3,99,99,h,2.968485,1,3,110,0,110,0,1,,,,,,,,,,,,,,,,,,,,,,,,,,,,,,,,,,
,,,,,,,,,,,,,,,,,,,,1,3,2021-01-08_18h16.05.156,CL_C2S3,2020.1.3,Win32,60,,,,,h,1,0.85951,1,media/dfnb.png,1,"[1,-1,-1]",1,1,Symb,h,RT,0,0,111,1,3,99,99,h,0.85951,1,3,111,0,111,0,1,,,,,,,,,,,,,,,,,,,,,,,,,,,,,,,,,,
,,,,,,,,,,,,,,,,,,,,1,3,2021-01-08_18h16.05.156,CL_C2S3,2020.1.3,Win32,60,,,,,i,1,0.86412,2,media/dknb.png,1,"[1,-1,-1]",2,0,Symb,i,RT,0,0,112,1,3,99,99,i,0.86412,1,3,112,0,112,0,1,,,,,,,,,,,,,,,,,,,,,,,,,,,,,,,,,,
,,,,,,,,,,,,,,,,,,,,1,3,2021-01-08_18h16.05.156,CL_C2S3,2020.1.3,Win32,60,,,,,i,1,0.771915,2,media/dknb.png,1,"[1,-1,-1]",2,0,Symb,i,RT,0,0,113,1,3,99,99,i,0.771915,1,3,113,0,113,0,1,,,,,,,,,,,,,,,,,,,,,,,,,,,,,,,,,,
,,,,,,,,,,,,,,,,,,,,1,3,2021-01-08_18h16.05.156,CL_C2S3,2020.1.3,Win32,60,,,,,u,1,1.42648,0,media/dcnb.png,1,"[1,-1,-1]",0,0,Symb,u,RT,0,0,114,1,3,99,99,u,1.42648,1,3,114,0,114,0,1,,,,,,,,,,,,,,,,,,,,,,,,,,,,,,,,,,
,,,,,,,,,,,,,,,,,,,,1,3,2021-01-08_18h16.05.156,CL_C2S3,2020.1.3,Win32,60,,,,,i,1,0.82586,1,media/dfnb.png,2,"[-1,1,-1]",4,1,Symb,i,RT,0,0,115,1,3,99,99,i,0.82586,1,3,115,0,115,0,1,,,,,,,,,,,,,,,,,,,,,,,,,,,,,,,,,,
,,,,,,,,,,,,,,,,,,,,1,3,2021-01-08_18h16.05.156,CL_C2S3,2020.1.3,Win32,60,,,,,h,1,1.438505,0,media/dcnb.png,2,"[-1,1,-1]",3,0,Symb,h,RT,0,0,116,1,3,99,99,h,1.438505,1,3,116,0,116,0,1,,,,,,,,,,,,,,,,,,,,,,,,,,,,,,,,,,
,,,,,,,,,,,,,,,,,,,,1,3,2021-01-08_18h16.05.156,CL_C2S3,2020.1.3,Win32,60,,,,,h,1,0.76955,1,media/dfnb.png,1,"[1,-1,-1]",1,1,Symb,h,RT,0,0,117,1,3,99,99,h,0.76955,1,3,117,0,117,0,1,,,,,,,,,,,,,,,,,,,,,,,,,,,,,,,,,,
,,,,,,,,,,,,,,,,,,,,1,3,2021-01-08_18h16.05.156,CL_C2S3,2020.1.3,Win32,60,,,,,u,1,0.59538,2,media/dknb.png,2,"[-1,1,-1]",5,0,Symb,u,RT,0,0,118,1,3,99,99,u,0.59538,1,3,118,0,118,0,1,,,,,,,,,,,,,,,,,,,,,,,,,,,,,,,,,,
,,,,,,,,,,,,,,,,,,,,1,3,2021-01-08_18h16.05.156,CL_C2S3,2020.1.3,Win32,60,,,,,i,1,0.52618,2,media/dknb.png,1,"[1,-1,-1]",2,0,Symb,i,RT,0,0,119,1,3,99,99,i,0.52618,1,3,119,0,119,0,1,,,,,,,,,,,,,,,,,,,,,,,,,,,,,,,,,,
,,,,,,,,,,,,,,,,,,,,1,3,2021-01-08_18h16.05.156,CL_C2S3,2020.1.3,Win32,60,,,,,,,,,,,,,,,,,,,,,,,,,,,,,,,,,2,0,2,0,1,,,,,,,,,,,,,,,,,,,,,,,,,,,,,
,,,,,,,,,,,,,,,,,,,,1,3,2021-01-08_18h16.05.156,CL_C2S3,2020.1.3,Win32,60,,,h,9.47463,h,1,0.773095,1,media/dfnb.png,1,"[1,-1,-1]",1,1,Symb,h,RT,0,0,0,1,4,99,99,h,0.773095,1,3,0,0,0,0,1,,,,,,,,,,,,,,,,,,,,,,,,,,,,,,,,,,
,,,,,,,,,,,,,,,,,,,,1,3,2021-01-08_18h16.05.156,CL_C2S3,2020.1.3,Win32,60,,,,,h,1,1.453565,0,media/dcnb.png,2,"[-1,1,-1]",3,0,Symb,h,RT,0,0,1,1,4,99,99,h,1.453565,1,3,1,0,1,0,1,,,,,,,,,,,,,,,,,,,,,,,,,,,,,,,,,,
,,,,,,,,,,,,,,,,,,,,1,3,2021-01-08_18h16.05.156,CL_C2S3,2020.1.3,Win32,60,,,,,u,1,0.7775,2,media/dknb.png,2,"[-1,1,-1]",5,0,Symb,u,RT,0,0,2,1,4,99,99,u,0.7775,1,3,2,0,2,0,1,,,,,,,,,,,,,,,,,,,,,,,,,,,,,,,,,,
,,,,,,,,,,,,,,,,,,,,1,3,2021-01-08_18h16.05.156,CL_C2S3,2020.1.3,Win32,60,,,,,u,1,2.15267,0,media/dcnb.png,1,"[1,-1,-1]",0,0,Symb,u,RT,0,0,3,1,4,99,99,u,2.15267,1,3,3,0,3,0,1,,,,,,,,,,,,,,,,,,,,,,,,,,,,,,,,,,
,,,,,,,,,,,,,,,,,,,,1,3,2021-01-08_18h16.05.156,CL_C2S3,2020.1.3,Win32,60,,,,,i,1,0.88788,1,media/dfnb.png,2,"[-1,1,-1]",4,1,Symb,i,RT,0,0,4,1,4,99,99,i,0.88788,1,3,4,0,4,0,1,,,,,,,,,,,,,,,,,,,,,,,,,,,,,,,,,,
,,,,,,,,,,,,,,,,,,,,1,3,2021-01-08_18h16.05.156,CL_C2S3,2020.1.3,Win32,60,,,,,i,1,0.908165,2,media/dknb.png,1,"[1,-1,-1]",2,0,Symb,i,RT,0,0,5,1,4,99,99,i,0.908165,1,3,5,0,5,0,1,,,,,,,,,,,,,,,,,,,,,,,,,,,,,,,,,,
,,,,,,,,,,,,,,,,,,,,1,3,2021-01-08_18h16.05.156,CL_C2S3,2020.1.3,Win32,60,,,,,h,1,0.77735,1,media/dfnb.png,1,"[1,-1,-1]",1,1,Symb,h,RT,0,0,6,1,4,99,99,h,0.77735,1,3,6,0,6,0,1,,,,,,,,,,,,,,,,,,,,,,,,,,,,,,,,,,
,,,,,,,,,,,,,,,,,,,,1,3,2021-01-08_18h16.05.156,CL_C2S3,2020.1.3,Win32,60,,,,,i,1,1.219785,1,media/dfnb.png,2,"[-1,1,-1]",4,1,Symb,i,RT,0,0,7,1,4,99,99,i,1.219785,1,3,7,0,7,0,1,,,,,,,,,,,,,,,,,,,,,,,,,,,,,,,,,,
,,,,,,,,,,,,,,,,,,,,1,3,2021-01-08_18h16.05.156,CL_C2S3,2020.1.3,Win32,60,,,,,u,1,2.473525,2,media/dknb.png,2,"[-1,1,-1]",5,0,Symb,u,RT,0,0,8,1,4,99,99,u,2.473525,1,3,8,0,8,0,1,,,,,,,,,,,,,,,,,,,,,,,,,,,,,,,,,,
,,,,,,,,,,,,,,,,,,,,1,3,2021-01-08_18h16.05.156,CL_C2S3,2020.1.3,Win32,60,,,,,i,1,0.633515,2,media/dknb.png,1,"[1,-1,-1]",2,0,Symb,i,RT,0,0,9,1,4,99,99,i,0.633515,1,3,9,0,9,0,1,,,,,,,,,,,,,,,,,,,,,,,,,,,,,,,,,,
,,,,,,,,,,,,,,,,,,,,1,3,2021-01-08_18h16.05.156,CL_C2S3,2020.1.3,Win32,60,,,,,u,1,0.791825,0,media/dcnb.png,1,"[1,-1,-1]",0,0,Symb,u,RT,0,0,10,1,4,99,99,u,0.791825,1,3,10,0,10,0,1,,,,,,,,,,,,,,,,,,,,,,,,,,,,,,,,,,
,,,,,,,,,,,,,,,,,,,,1,3,2021-01-08_18h16.05.156,CL_C2S3,2020.1.3,Win32,60,,,,,h,1,0.738475,0,media/dcnb.png,2,"[-1,1,-1]",3,0,Symb,h,RT,0,0,11,1,4,99,99,h,0.738475,1,3,11,0,11,0,1,,,,,,,,,,,,,,,,,,,,,,,,,,,,,,,,,,
,,,,,,,,,,,,,,,,,,,,1,3,2021-01-08_18h16.05.156,CL_C2S3,2020.1.3,Win32,60,,,,,h,1,1.18739,1,media/dfnb.png,1,"[1,-1,-1]",1,1,Symb,h,RT,0,0,12,1,4,99,99,h,1.18739,1,3,12,0,12,0,1,,,,,,,,,,,,,,,,,,,,,,,,,,,,,,,,,,
,,,,,,,,,,,,,,,,,,,,1,3,2021-01-08_18h16.05.156,CL_C2S3,2020.1.3,Win32,60,,,,,i,1,0.61877,1,media/dfnb.png,2,"[-1,1,-1]",4,1,Symb,i,RT,0,0,13,1,4,99,99,i,0.61877,1,3,13,0,13,0,1,,,,,,,,,,,,,,,,,,,,,,,,,,,,,,,,,,
,,,,,,,,,,,,,,,,,,,,1,3,2021-01-08_18h16.05.156,CL_C2S3,2020.1.3,Win32,60,,,,,u,1,0.60444,0,media/dcnb.png,1,"[1,-1,-1]",0,0,Symb,u,RT,0,0,14,1,4,99,99,u,0.60444,1,3,14,0,14,0,1,,,,,,,,,,,,,,,,,,,,,,,,,,,,,,,,,,
,,,,,,,,,,,,,,,,,,,,1,3,2021-01-08_18h16.05.156,CL_C2S3,2020.1.3,Win32,60,,,,,h,1,0.60371,0,media/dcnb.png,2,"[-1,1,-1]",3,0,Symb,h,RT,0,0,15,1,4,99,99,h,0.60371,1,3,15,0,15,0,1,,,,,,,,,,,,,,,,,,,,,,,,,,,,,,,,,,
,,,,,,,,,,,,,,,,,,,,1,3,2021-01-08_18h16.05.156,CL_C2S3,2020.1.3,Win32,60,,,,,i,1,0.58334,2,media/dknb.png,1,"[1,-1,-1]",2,0,Symb,i,RT,0,0,16,1,4,99,99,i,0.58334,1,3,16,0,16,0,1,,,,,,,,,,,,,,,,,,,,,,,,,,,,,,,,,,
,,,,,,,,,,,,,,,,,,,,1,3,2021-01-08_18h16.05.156,CL_C2S3,2020.1.3,Win32,60,,,,,u,1,0.68382,0,media/dcnb.png,1,"[1,-1,-1]",0,0,Symb,u,RT,0,0,17,1,4,99,99,u,0.68382,1,3,17,0,17,0,1,,,,,,,,,,,,,,,,,,,,,,,,,,,,,,,,,,
,,,,,,,,,,,,,,,,,,,,1,3,2021-01-08_18h16.05.156,CL_C2S3,2020.1.3,Win32,60,,,,,u,1,0.60791,2,media/dknb.png,2,"[-1,1,-1]",5,0,Symb,u,RT,0,0,18,1,4,99,99,u,0.60791,1,3,18,0,18,0,1,,,,,,,,,,,,,,,,,,,,,,,,,,,,,,,,,,
,,,,,,,,,,,,,,,,,,,,1,3,2021-01-08_18h16.05.156,CL_C2S3,2020.1.3,Win32,60,,,,,h,1,0.604905,1,media/dfnb.png,1,"[1,-1,-1]",1,1,Symb,h,RT,0,0,19,1,4,99,99,h,0.604905,1,3,19,0,19,0,1,,,,,,,,,,,,,,,,,,,,,,,,,,,,,,,,,,
,,,,,,,,,,,,,,,,,,,,1,3,2021-01-08_18h16.05.156,CL_C2S3,2020.1.3,Win32,60,,,,,u,1,0.90106,2,media/dknb.png,2,"[-1,1,-1]",5,0,Symb,u,RT,0,0,20,1,4,99,99,u,0.90106,1,3,20,0,20,0,1,,,,,,,,,,,,,,,,,,,,,,,,,,,,,,,,,,
,,,,,,,,,,,,,,,,,,,,1,3,2021-01-08_18h16.05.156,CL_C2S3,2020.1.3,Win32,60,,,,,h,0,0.60116,1,media/dfnb.png,2,"[-1,1,-1]",4,1,Symb,i,RT,0,0,21,1,4,99,99,h,0.60116,0,3,21,0,21,0,1,,,,,,,,,,,,,,,,,,,,,,,,,,,,,,,,,,
,,,,,,,,,,,,,,,,,,,,1,3,2021-01-08_18h16.05.156,CL_C2S3,2020.1.3,Win32,60,,,,,h,1,1.52309,0,media/dcnb.png,2,"[-1,1,-1]",3,0,Symb,h,RT,0,0,22,1,4,99,99,h,1.52309,1,3,22,0,22,0,1,,,,,,,,,,,,,,,,,,,,,,,,,,,,,,,,,,
,,,,,,,,,,,,,,,,,,,,1,3,2021-01-08_18h16.05.156,CL_C2S3,2020.1.3,Win32,60,,,,,i,1,0.684225,2,media/dknb.png,1,"[1,-1,-1]",2,0,Symb,i,RT,0,0,23,1,4,99,99,i,0.684225,1,3,23,0,23,0,1,,,,,,,,,,,,,,,,,,,,,,,,,,,,,,,,,,
,,,,,,,,,,,,,,,,,,,,1,3,2021-01-08_18h16.05.156,CL_C2S3,2020.1.3,Win32,60,,,,,h,1,2.00264,0,media/dcnb.png,2,"[-1,1,-1]",3,0,Symb,h,RT,0,0,24,1,4,99,99,h,2.00264,1,3,24,0,24,0,1,,,,,,,,,,,,,,,,,,,,,,,,,,,,,,,,,,
,,,,,,,,,,,,,,,,,,,,1,3,2021-01-08_18h16.05.156,CL_C2S3,2020.1.3,Win32,60,,,,,h,1,1.972225,1,media/dfnb.png,1,"[1,-1,-1]",1,1,Symb,h,RT,0,0,25,1,4,99,99,h,1.972225,1,3,25,0,25,0,1,,,,,,,,,,,,,,,,,,,,,,,,,,,,,,,,,,
,,,,,,,,,,,,,,,,,,,,1,3,2021-01-08_18h16.05.156,CL_C2S3,2020.1.3,Win32,60,,,,,i,1,0.80681,2,media/dknb.png,1,"[1,-1,-1]",2,0,Symb,i,RT,0,0,26,1,4,99,99,i,0.80681,1,3,26,0,26,0,1,,,,,,,,,,,,,,,,,,,,,,,,,,,,,,,,,,
,,,,,,,,,,,,,,,,,,,,1,3,2021-01-08_18h16.05.156,CL_C2S3,2020.1.3,Win32,60,,,,,u,1,1.022805,2,media/dknb.png,2,"[-1,1,-1]",5,0,Symb,u,RT,0,0,27,1,4,99,99,u,1.022805,1,3,27,0,27,0,1,,,,,,,,,,,,,,,,,,,,,,,,,,,,,,,,,,
,,,,,,,,,,,,,,,,,,,,1,3,2021-01-08_18h16.05.156,CL_C2S3,2020.1.3,Win32,60,,,,,i,1,1.45945,1,media/dfnb.png,2,"[-1,1,-1]",4,1,Symb,i,RT,0,0,28,1,4,99,99,i,1.45945,1,3,28,0,28,0,1,,,,,,,,,,,,,,,,,,,,,,,,,,,,,,,,,,
,,,,,,,,,,,,,,,,,,,,1,3,2021-01-08_18h16.05.156,CL_C2S3,2020.1.3,Win32,60,,,,,u,1,0.701285,0,media/dcnb.png,1,"[1,-1,-1]",0,0,Symb,u,RT,0,0,29,1,4,99,99,u,0.701285,1,3,29,0,29,0,1,,,,,,,,,,,,,,,,,,,,,,,,,,,,,,,,,,
,,,,,,,,,,,,,,,,,,,,1,3,2021-01-08_18h16.05.156,CL_C2S3,2020.1.3,Win32,60,,,,,i,0,1.66868,2,media/dknb.png,2,"[-1,1,-1]",5,0,Symb,u,RT,0,0,30,1,4,99,99,i,1.66868,0,3,30,0,30,0,1,,,,,,,,,,,,,,,,,,,,,,,,,,,,,,,,,,
,,,,,,,,,,,,,,,,,,,,1,3,2021-01-08_18h16.05.156,CL_C2S3,2020.1.3,Win32,60,,,,,i,1,1.121585,2,media/dknb.png,1,"[1,-1,-1]",2,0,Symb,i,RT,0,0,31,1,4,99,99,i,1.121585,1,3,31,0,31,0,1,,,,,,,,,,,,,,,,,,,,,,,,,,,,,,,,,,
,,,,,,,,,,,,,,,,,,,,1,3,2021-01-08_18h16.05.156,CL_C2S3,2020.1.3,Win32,60,,,,,i,1,1.258105,1,media/dfnb.png,2,"[-1,1,-1]",4,1,Symb,i,RT,0,0,32,1,4,99,99,i,1.258105,1,3,32,0,32,0,1,,,,,,,,,,,,,,,,,,,,,,,,,,,,,,,,,,
,,,,,,,,,,,,,,,,,,,,1,3,2021-01-08_18h16.05.156,CL_C2S3,2020.1.3,Win32,60,,,,,h,1,1.22451,0,media/dcnb.png,2,"[-1,1,-1]",3,0,Symb,h,RT,0,0,33,1,4,99,99,h,1.22451,1,3,33,0,33,0,1,,,,,,,,,,,,,,,,,,,,,,,,,,,,,,,,,,
,,,,,,,,,,,,,,,,,,,,1,3,2021-01-08_18h16.05.156,CL_C2S3,2020.1.3,Win32,60,,,,,h,1,0.70619,1,media/dfnb.png,1,"[1,-1,-1]",1,1,Symb,h,RT,0,0,34,1,4,99,99,h,0.70619,1,3,34,0,34,0,1,,,,,,,,,,,,,,,,,,,,,,,,,,,,,,,,,,
,,,,,,,,,,,,,,,,,,,,1,3,2021-01-08_18h16.05.156,CL_C2S3,2020.1.3,Win32,60,,,,,h,1,0.438505,1,media/dfnb.png,1,"[1,-1,-1]",1,1,Symb,h,RT,0,0,35,1,4,99,99,h,0.438505,1,3,35,0,35,0,1,,,,,,,,,,,,,,,,,,,,,,,,,,,,,,,,,,
,,,,,,,,,,,,,,,,,,,,1,3,2021-01-08_18h16.05.156,CL_C2S3,2020.1.3,Win32,60,,,,,i,0,2.117505,0,media/dcnb.png,1,"[1,-1,-1]",0,0,Symb,u,RT,0,0,36,1,4,99,99,i,2.117505,0,3,36,0,36,0,1,,,,,,,,,,,,,,,,,,,,,,,,,,,,,,,,,,
,,,,,,,,,,,,,,,,,,,,1,3,2021-01-08_18h16.05.156,CL_C2S3,2020.1.3,Win32,60,,,,,h,1,1.604925,0,media/dcnb.png,2,"[-1,1,-1]",3,0,Symb,h,RT,0,0,37,1,4,99,99,h,1.604925,1,3,37,0,37,0,1,,,,,,,,,,,,,,,,,,,,,,,,,,,,,,,,,,
,,,,,,,,,,,,,,,,,,,,1,3,2021-01-08_18h16.05.156,CL_C2S3,2020.1.3,Win32,60,,,,,u,1,1.75375,0,media/dcnb.png,1,"[1,-1,-1]",0,0,Symb,u,RT,0,0,38,1,4,99,99,u,1.75375,1,3,38,0,38,0,1,,,,,,,,,,,,,,,,,,,,,,,,,,,,,,,,,,
,,,,,,,,,,,,,,,,,,,,1,3,2021-01-08_18h16.05.156,CL_C2S3,2020.1.3,Win32,60,,,,,h,0,0.884275,2,media/dknb.png,1,"[1,-1,-1]",2,0,Symb,i,RT,0,0,39,1,4,99,99,h,0.884275,0,3,39,0,39,0,1,,,,,,,,,,,,,,,,,,,,,,,,,,,,,,,,,,
,,,,,,,,,,,,,,,,,,,,1,3,2021-01-08_18h16.05.156,CL_C2S3,2020.1.3,Win32,60,,,,,u,1,2.96807,2,media/dknb.png,2,"[-1,1,-1]",5,0,Symb,u,RT,0,0,40,1,4,99,99,u,2.96807,1,3,40,0,40,0,1,,,,,,,,,,,,,,,,,,,,,,,,,,,,,,,,,,
,,,,,,,,,,,,,,,,,,,,1,3,2021-01-08_18h16.05.156,CL_C2S3,2020.1.3,Win32,60,,,,,h,0,1.350925,1,media/dfnb.png,2,"[-1,1,-1]",4,1,Symb,i,RT,0,0,41,1,4,99,99,h,1.350925,0,3,41,0,41,0,1,,,,,,,,,,,,,,,,,,,,,,,,,,,,,,,,,,
,,,,,,,,,,,,,,,,,,,,1,3,2021-01-08_18h16.05.156,CL_C2S3,2020.1.3,Win32,60,,,,,h,1,0.50511,1,media/dfnb.png,1,"[1,-1,-1]",1,1,Symb,h,RT,0,0,42,1,4,99,99,h,0.50511,1,3,42,0,42,0,1,,,,,,,,,,,,,,,,,,,,,,,,,,,,,,,,,,
,,,,,,,,,,,,,,,,,,,,1,3,2021-01-08_18h16.05.156,CL_C2S3,2020.1.3,Win32,60,,,,,i,1,0.58381,1,media/dfnb.png,2,"[-1,1,-1]",4,1,Symb,i,RT,0,0,43,1,4,99,99,i,0.58381,1,3,43,0,43,0,1,,,,,,,,,,,,,,,,,,,,,,,,,,,,,,,,,,
,,,,,,,,,,,,,,,,,,,,1,3,2021-01-08_18h16.05.156,CL_C2S3,2020.1.3,Win32,60,,,,,u,1,0.775395,2,media/dknb.png,2,"[-1,1,-1]",5,0,Symb,u,RT,0,0,44,1,4,99,99,u,0.775395,1,3,44,0,44,0,1,,,,,,,,,,,,,,,,,,,,,,,,,,,,,,,,,,
,,,,,,,,,,,,,,,,,,,,1,3,2021-01-08_18h16.05.156,CL_C2S3,2020.1.3,Win32,60,,,,,i,1,0.583955,2,media/dknb.png,1,"[1,-1,-1]",2,0,Symb,i,RT,0,0,45,1,4,99,99,i,0.583955,1,3,45,0,45,0,1,,,,,,,,,,,,,,,,,,,,,,,,,,,,,,,,,,
,,,,,,,,,,,,,,,,,,,,1,3,2021-01-08_18h16.05.156,CL_C2S3,2020.1.3,Win32,60,,,,,h,1,0.62411,1,media/dfnb.png,1,"[1,-1,-1]",1,1,Symb,h,RT,0,0,46,1,4,99,99,h,0.62411,1,3,46,0,46,0,1,,,,,,,,,,,,,,,,,,,,,,,,,,,,,,,,,,
,,,,,,,,,,,,,,,,,,,,1,3,2021-01-08_18h16.05.156,CL_C2S3,2020.1.3,Win32,60,,,,,h,1,0.85514,0,media/dcnb.png,2,"[-1,1,-1]",3,0,Symb,h,RT,0,0,47,1,4,99,99,h,0.85514,1,3,47,0,47,0,1,,,,,,,,,,,,,,,,,,,,,,,,,,,,,,,,,,
,,,,,,,,,,,,,,,,,,,,1,3,2021-01-08_18h16.05.156,CL_C2S3,2020.1.3,Win32,60,,,,,u,1,0.867205,0,media/dcnb.png,1,"[1,-1,-1]",0,0,Symb,u,RT,0,0,48,1,4,99,99,u,0.867205,1,3,48,0,48,0,1,,,,,,,,,,,,,,,,,,,,,,,,,,,,,,,,,,
,,,,,,,,,,,,,,,,,,,,1,3,2021-01-08_18h16.05.156,CL_C2S3,2020.1.3,Win32,60,,,,,i,1,1.893675,2,media/dknb.png,1,"[1,-1,-1]",2,0,Symb,i,RT,0,0,49,1,4,99,99,i,1.893675,1,3,49,0,49,0,1,,,,,,,,,,,,,,,,,,,,,,,,,,,,,,,,,,
,,,,,,,,,,,,,,,,,,,,1,3,2021-01-08_18h16.05.156,CL_C2S3,2020.1.3,Win32,60,,,,,i,1,1.466605,1,media/dfnb.png,2,"[-1,1,-1]",4,1,Symb,i,RT,0,0,50,1,4,99,99,i,1.466605,1,3,50,0,50,0,1,,,,,,,,,,,,,,,,,,,,,,,,,,,,,,,,,,
,,,,,,,,,,,,,,,,,,,,1,3,2021-01-08_18h16.05.156,CL_C2S3,2020.1.3,Win32,60,,,,,h,1,0.83901,0,media/dcnb.png,2,"[-1,1,-1]",3,0,Symb,h,RT,0,0,51,1,4,99,99,h,0.83901,1,3,51,0,51,0,1,,,,,,,,,,,,,,,,,,,,,,,,,,,,,,,,,,
,,,,,,,,,,,,,,,,,,,,1,3,2021-01-08_18h16.05.156,CL_C2S3,2020.1.3,Win32,60,,,,,u,1,0.79975,2,media/dknb.png,2,"[-1,1,-1]",5,0,Symb,u,RT,0,0,52,1,4,99,99,u,0.79975,1,3,52,0,52,0,1,,,,,,,,,,,,,,,,,,,,,,,,,,,,,,,,,,
,,,,,,,,,,,,,,,,,,,,1,3,2021-01-08_18h16.05.156,CL_C2S3,2020.1.3,Win32,60,,,,,u,1,0.67219,0,media/dcnb.png,1,"[1,-1,-1]",0,0,Symb,u,RT,0,0,53,1,4,99,99,u,0.67219,1,3,53,0,53,0,1,,,,,,,,,,,,,,,,,,,,,,,,,,,,,,,,,,
,,,,,,,,,,,,,,,,,,,,1,3,2021-01-08_18h16.05.156,CL_C2S3,2020.1.3,Win32,60,,,,,i,1,0.745575,1,media/dfnb.png,2,"[-1,1,-1]",4,1,Symb,i,RT,0,0,54,1,4,99,99,i,0.745575,1,3,54,0,54,0,1,,,,,,,,,,,,,,,,,,,,,,,,,,,,,,,,,,
,,,,,,,,,,,,,,,,,,,,1,3,2021-01-08_18h16.05.156,CL_C2S3,2020.1.3,Win32,60,,,,,u,1,0.754795,0,media/dcnb.png,1,"[1,-1,-1]",0,0,Symb,u,RT,0,0,55,1,4,99,99,u,0.754795,1,3,55,0,55,0,1,,,,,,,,,,,,,,,,,,,,,,,,,,,,,,,,,,
,,,,,,,,,,,,,,,,,,,,1,3,2021-01-08_18h16.05.156,CL_C2S3,2020.1.3,Win32,60,,,,,h,1,0.560825,1,media/dfnb.png,1,"[1,-1,-1]",1,1,Symb,h,RT,0,0,56,1,4,99,99,h,0.560825,1,3,56,0,56,0,1,,,,,,,,,,,,,,,,,,,,,,,,,,,,,,,,,,
,,,,,,,,,,,,,,,,,,,,1,3,2021-01-08_18h16.05.156,CL_C2S3,2020.1.3,Win32,60,,,,,i,1,0.62252,2,media/dknb.png,1,"[1,-1,-1]",2,0,Symb,i,RT,0,0,57,1,4,99,99,i,0.62252,1,3,57,0,57,0,1,,,,,,,,,,,,,,,,,,,,,,,,,,,,,,,,,,
,,,,,,,,,,,,,,,,,,,,1,3,2021-01-08_18h16.05.156,CL_C2S3,2020.1.3,Win32,60,,,,,h,1,0.692075,0,media/dcnb.png,2,"[-1,1,-1]",3,0,Symb,h,RT,0,0,58,1,4,99,99,h,0.692075,1,3,58,0,58,0,1,,,,,,,,,,,,,,,,,,,,,,,,,,,,,,,,,,
,,,,,,,,,,,,,,,,,,,,1,3,2021-01-08_18h16.05.156,CL_C2S3,2020.1.3,Win32,60,,,,,u,1,0.479305,2,media/dknb.png,2,"[-1,1,-1]",5,0,Symb,u,RT,0,0,59,1,4,99,99,u,0.479305,1,3,59,0,59,0,1,,,,,,,,,,,,,,,,,,,,,,,,,,,,,,,,,,
,,,,,,,,,,,,,,,,,,,,1,3,2021-01-08_18h16.05.156,CL_C2S3,2020.1.3,Win32,60,,,,,u,1,0.450985,2,media/dknb.png,2,"[-1,1,-1]",5,0,Symb,u,RT,0,0,60,1,4,99,99,u,0.450985,1,3,60,0,60,0,1,,,,,,,,,,,,,,,,,,,,,,,,,,,,,,,,,,
,,,,,,,,,,,,,,,,,,,,1,3,2021-01-08_18h16.05.156,CL_C2S3,2020.1.3,Win32,60,,,,,u,1,0.433525,2,media/dknb.png,2,"[-1,1,-1]",5,0,Symb,u,RT,0,0,61,1,4,99,99,u,0.433525,1,3,61,0,61,0,1,,,,,,,,,,,,,,,,,,,,,,,,,,,,,,,,,,
,,,,,,,,,,,,,,,,,,,,1,3,2021-01-08_18h16.05.156,CL_C2S3,2020.1.3,Win32,60,,,,,u,1,0.42321,0,media/dcnb.png,1,"[1,-1,-1]",0,0,Symb,u,RT,0,0,62,1,4,99,99,u,0.42321,1,3,62,0,62,0,1,,,,,,,,,,,,,,,,,,,,,,,,,,,,,,,,,,
,,,,,,,,,,,,,,,,,,,,1,3,2021-01-08_18h16.05.156,CL_C2S3,2020.1.3,Win32,60,,,,,h,1,0.71865,1,media/dfnb.png,1,"[1,-1,-1]",1,1,Symb,h,RT,0,0,63,1,4,99,99,h,0.71865,1,3,63,0,63,0,1,,,,,,,,,,,,,,,,,,,,,,,,,,,,,,,,,,
,,,,,,,,,,,,,,,,,,,,1,3,2021-01-08_18h16.05.156,CL_C2S3,2020.1.3,Win32,60,,,,,i,1,0.550405,1,media/dfnb.png,2,"[-1,1,-1]",4,1,Symb,i,RT,0,0,64,1,4,99,99,i,0.550405,1,3,64,0,64,0,1,,,,,,,,,,,,,,,,,,,,,,,,,,,,,,,,,,
,,,,,,,,,,,,,,,,,,,,1,3,2021-01-08_18h16.05.156,CL_C2S3,2020.1.3,Win32,60,,,,,h,1,1.05267,0,media/dcnb.png,2,"[-1,1,-1]",3,0,Symb,h,RT,0,0,65,1,4,99,99,h,1.05267,1,3,65,0,65,0,1,,,,,,,,,,,,,,,,,,,,,,,,,,,,,,,,,,
,,,,,,,,,,,,,,,,,,,,1,3,2021-01-08_18h16.05.156,CL_C2S3,2020.1.3,Win32,60,,,,,u,1,0.429285,0,media/dcnb.png,1,"[1,-1,-1]",0,0,Symb,u,RT,0,0,66,1,4,99,99,u,0.429285,1,3,66,0,66,0,1,,,,,,,,,,,,,,,,,,,,,,,,,,,,,,,,,,
,,,,,,,,,,,,,,,,,,,,1,3,2021-01-08_18h16.05.156,CL_C2S3,2020.1.3,Win32,60,,,,,i,1,0.842655,1,media/dfnb.png,2,"[-1,1,-1]",4,1,Symb,i,RT,0,0,67,1,4,99,99,i,0.842655,1,3,67,0,67,0,1,,,,,,,,,,,,,,,,,,,,,,,,,,,,,,,,,,
,,,,,,,,,,,,,,,,,,,,1,3,2021-01-08_18h16.05.156,CL_C2S3,2020.1.3,Win32,60,,,,,h,1,0.57311,1,media/dfnb.png,1,"[1,-1,-1]",1,1,Symb,h,RT,0,0,68,1,4,99,99,h,0.57311,1,3,68,0,68,0,1,,,,,,,,,,,,,,,,,,,,,,,,,,,,,,,,,,
,,,,,,,,,,,,,,,,,,,,1,3,2021-01-08_18h16.05.156,CL_C2S3,2020.1.3,Win32,60,,,,,i,1,2.76278,2,media/dknb.png,1,"[1,-1,-1]",2,0,Symb,i,RT,0,0,69,1,4,99,99,i,2.76278,1,3,69,0,69,0,1,,,,,,,,,,,,,,,,,,,,,,,,,,,,,,,,,,
,,,,,,,,,,,,,,,,,,,,1,3,2021-01-08_18h16.05.156,CL_C2S3,2020.1.3,Win32,60,,,,,h,1,2.005925,0,media/dcnb.png,2,"[-1,1,-1]",3,0,Symb,h,RT,0,0,70,1,4,99,99,h,2.005925,1,3,70,0,70,0,1,,,,,,,,,,,,,,,,,,,,,,,,,,,,,,,,,,
,,,,,,,,,,,,,,,,,,,,1,3,2021-01-08_18h16.05.156,CL_C2S3,2020.1.3,Win32,60,,,,,u,0,0.620565,2,media/dknb.png,1,"[1,-1,-1]",2,0,Symb,i,RT,0,0,71,1,4,99,99,u,0.620565,0,3,71,0,71,0,1,,,,,,,,,,,,,,,,,,,,,,,,,,,,,,,,,,
,,,,,,,,,,,,,,,,,,,,1,3,2021-01-08_18h16.05.156,CL_C2S3,2020.1.3,Win32,60,,,,,h,1,0.788765,0,media/dcnb.png,2,"[-1,1,-1]",3,0,Symb,h,RT,0,0,72,1,4,99,99,h,0.788765,1,3,72,0,72,0,1,,,,,,,,,,,,,,,,,,,,,,,,,,,,,,,,,,
,,,,,,,,,,,,,,,,,,,,1,3,2021-01-08_18h16.05.156,CL_C2S3,2020.1.3,Win32,60,,,,,u,1,0.519405,0,media/dcnb.png,1,"[1,-1,-1]",0,0,Symb,u,RT,0,0,73,1,4,99,99,u,0.519405,1,3,73,0,73,0,1,,,,,,,,,,,,,,,,,,,,,,,,,,,,,,,,,,
,,,,,,,,,,,,,,,,,,,,1,3,2021-01-08_18h16.05.156,CL_C2S3,2020.1.3,Win32,60,,,,,i,1,0.733495,2,media/dknb.png,1,"[1,-1,-1]",2,0,Symb,i,RT,0,0,74,1,4,99,99,i,0.733495,1,3,74,0,74,0,1,,,,,,,,,,,,,,,,,,,,,,,,,,,,,,,,,,
,,,,,,,,,,,,,,,,,,,,1,3,2021-01-08_18h16.05.156,CL_C2S3,2020.1.3,Win32,60,,,,,i,1,0.500135,2,media/dknb.png,1,"[1,-1,-1]",2,0,Symb,i,RT,0,0,75,1,4,99,99,i,0.500135,1,3,75,0,75,0,1,,,,,,,,,,,,,,,,,,,,,,,,,,,,,,,,,,
,,,,,,,,,,,,,,,,,,,,1,3,2021-01-08_18h16.05.156,CL_C2S3,2020.1.3,Win32,60,,,,,h,1,2.21023,1,media/dfnb.png,1,"[1,-1,-1]",1,1,Symb,h,RT,0,0,76,1,4,99,99,h,2.21023,1,3,76,0,76,0,1,,,,,,,,,,,,,,,,,,,,,,,,,,,,,,,,,,
,,,,,,,,,,,,,,,,,,,,1,3,2021-01-08_18h16.05.156,CL_C2S3,2020.1.3,Win32,60,,,,,h,1,1.74001,0,media/dcnb.png,2,"[-1,1,-1]",3,0,Symb,h,RT,0,0,77,1,4,99,99,h,1.74001,1,3,77,0,77,0,1,,,,,,,,,,,,,,,,,,,,,,,,,,,,,,,,,,
,,,,,,,,,,,,,,,,,,,,1,3,2021-01-08_18h16.05.156,CL_C2S3,2020.1.3,Win32,60,,,,,i,1,0.868575,1,media/dfnb.png,2,"[-1,1,-1]",4,1,Symb,i,RT,0,0,78,1,4,99,99,i,0.868575,1,3,78,0,78,0,1,,,,,,,,,,,,,,,,,,,,,,,,,,,,,,,,,,
,,,,,,,,,,,,,,,,,,,,1,3,2021-01-08_18h16.05.156,CL_C2S3,2020.1.3,Win32,60,,,,,u,1,0.719395,2,media/dknb.png,2,"[-1,1,-1]",5,0,Symb,u,RT,0,0,79,1,4,99,99,u,0.719395,1,3,79,0,79,0,1,,,,,,,,,,,,,,,,,,,,,,,,,,,,,,,,,,
,,,,,,,,,,,,,,,,,,,,1,3,2021-01-08_18h16.05.156,CL_C2S3,2020.1.3,Win32,60,,,,,h,1,0.743805,1,media/dfnb.png,1,"[1,-1,-1]",1,1,Symb,h,RT,0,0,80,1,4,99,99,h,0.743805,1,3,80,0,80,0,1,,,,,,,,,,,,,,,,,,,,,,,,,,,,,,,,,,
,,,,,,,,,,,,,,,,,,,,1,3,2021-01-08_18h16.05.156,CL_C2S3,2020.1.3,Win32,60,,,,,i,1,0.538995,1,media/dfnb.png,2,"[-1,1,-1]",4,1,Symb,i,RT,0,0,81,1,4,99,99,i,0.538995,1,3,81,0,81,0,1,,,,,,,,,,,,,,,,,,,,,,,,,,,,,,,,,,
,,,,,,,,,,,,,,,,,,,,1,3,2021-01-08_18h16.05.156,CL_C2S3,2020.1.3,Win32,60,,,,,u,1,0.6047,2,media/dknb.png,2,"[-1,1,-1]",5,0,Symb,u,RT,0,0,82,1,4,99,99,u,0.6047,1,3,82,0,82,0,1,,,,,,,,,,,,,,,,,,,,,,,,,,,,,,,,,,
,,,,,,,,,,,,,,,,,,,,1,3,2021-01-08_18h16.05.156,CL_C2S3,2020.1.3,Win32,60,,,,,u,1,0.68452,0,media/dcnb.png,1,"[1,-1,-1]",0,0,Symb,u,RT,0,0,83,1,4,99,99,u,0.68452,1,3,83,0,83,0,1,,,,,,,,,,,,,,,,,,,,,,,,,,,,,,,,,,
,,,,,,,,,,,,,,,,,,,,1,3,2021-01-08_18h16.05.156,CL_C2S3,2020.1.3,Win32,60,,,,,i,1,0.52747,2,media/dknb.png,1,"[1,-1,-1]",2,0,Symb,i,RT,0,0,84,1,4,99,99,i,0.52747,1,3,84,0,84,0,1,,,,,,,,,,,,,,,,,,,,,,,,,,,,,,,,,,
,,,,,,,,,,,,,,,,,,,,1,3,2021-01-08_18h16.05.156,CL_C2S3,2020.1.3,Win32,60,,,,,h,1,0.62138,1,media/dfnb.png,1,"[1,-1,-1]",1,1,Symb,h,RT,0,0,85,1,4,99,99,h,0.62138,1,3,85,0,85,0,1,,,,,,,,,,,,,,,,,,,,,,,,,,,,,,,,,,
,,,,,,,,,,,,,,,,,,,,1,3,2021-01-08_18h16.05.156,CL_C2S3,2020.1.3,Win32,60,,,,,u,1,0.785855,0,media/dcnb.png,1,"[1,-1,-1]",0,0,Symb,u,RT,0,0,86,1,4,99,99,u,0.785855,1,3,86,0,86,0,1,,,,,,,,,,,,,,,,,,,,,,,,,,,,,,,,,,
,,,,,,,,,,,,,,,,,,,,1,3,2021-01-08_18h16.05.156,CL_C2S3,2020.1.3,Win32,60,,,,,i,1,0.774035,1,media/dfnb.png,2,"[-1,1,-1]",4,1,Symb,i,RT,0,0,87,1,4,99,99,i,0.774035,1,3,87,0,87,0,1,,,,,,,,,,,,,,,,,,,,,,,,,,,,,,,,,,
,,,,,,,,,,,,,,,,,,,,1,3,2021-01-08_18h16.05.156,CL_C2S3,2020.1.3,Win32,60,,,,,u,1,0.961915,2,media/dknb.png,2,"[-1,1,-1]",5,0,Symb,u,RT,0,0,88,1,4,99,99,u,0.961915,1,3,88,0,88,0,1,,,,,,,,,,,,,,,,,,,,,,,,,,,,,,,,,,
,,,,,,,,,,,,,,,,,,,,1,3,2021-01-08_18h16.05.156,CL_C2S3,2020.1.3,Win32,60,,,,,h,1,2.23082,0,media/dcnb.png,2,"[-1,1,-1]",3,0,Symb,h,RT,0,0,89,1,4,99,99,h,2.23082,1,3,89,0,89,0,1,,,,,,,,,,,,,,,,,,,,,,,,,,,,,,,,,,
,,,,,,,,,,,,,,,,,,,,1,3,2021-01-08_18h16.05.156,CL_C2S3,2020.1.3,Win32,60,,,,,i,1,0.756145,1,media/dfnb.png,2,"[-1,1,-1]",4,1,Symb,i,RT,0,0,90,1,4,99,99,i,0.756145,1,3,90,0,90,0,1,,,,,,,,,,,,,,,,,,,,,,,,,,,,,,,,,,
,,,,,,,,,,,,,,,,,,,,1,3,2021-01-08_18h16.05.156,CL_C2S3,2020.1.3,Win32,60,,,,,h,1,0.349505,1,media/dfnb.png,1,"[1,-1,-1]",1,1,Symb,h,RT,0,0,91,1,4,99,99,h,0.349505,1,3,91,0,91,0,1,,,,,,,,,,,,,,,,,,,,,,,,,,,,,,,,,,
,,,,,,,,,,,,,,,,,,,,1,3,2021-01-08_18h16.05.156,CL_C2S3,2020.1.3,Win32,60,,,,,u,1,1.00455,2,media/dknb.png,2,"[-1,1,-1]",5,0,Symb,u,RT,0,0,92,1,4,99,99,u,1.00455,1,3,92,0,92,0,1,,,,,,,,,,,,,,,,,,,,,,,,,,,,,,,,,,
,,,,,,,,,,,,,,,,,,,,1,3,2021-01-08_18h16.05.156,CL_C2S3,2020.1.3,Win32,60,,,,,h,1,0.67075,1,media/dfnb.png,1,"[1,-1,-1]",1,1,Symb,h,RT,0,0,93,1,4,99,99,h,0.67075,1,3,93,0,93,0,1,,,,,,,,,,,,,,,,,,,,,,,,,,,,,,,,,,
,,,,,,,,,,,,,,,,,,,,1,3,2021-01-08_18h16.05.156,CL_C2S3,2020.1.3,Win32,60,,,,,u,1,0.638285,2,media/dknb.png,2,"[-1,1,-1]",5,0,Symb,u,RT,0,0,94,1,4,99,99,u,0.638285,1,3,94,0,94,0,1,,,,,,,,,,,,,,,,,,,,,,,,,,,,,,,,,,
,,,,,,,,,,,,,,,,,,,,1,3,2021-01-08_18h16.05.156,CL_C2S3,2020.1.3,Win32,60,,,,,h,0,0.59593,1,media/dfnb.png,2,"[-1,1,-1]",4,1,Symb,i,RT,0,0,95,1,4,99,99,h,0.59593,0,3,95,0,95,0,1,,,,,,,,,,,,,,,,,,,,,,,,,,,,,,,,,,
