Ctx_Color_List,stim_key_map_ctx1,stim_key_map_ctx2,stim_key_remap_ctx1,stim_key_remap_ctx2,Import_File.thisRepN,Import_File.thisTrialN,Import_File.thisN,Import_File.thisIndex,Import_File.ran,Stim,Ctx_Color,Key,KeyNum,imStim,X_Pos,Y_Pos,Hand,Check,Cross,participant,session,date,expName,psychopyVersion,OS,frameRate,Instr_RT_Old_Press.keys,Instr_RT_Old_Press.rt,Instr_Block_Num_Press.keys,Instr_Block_Num_Press.rt,RT_Press.keys,RT_Press.corr,RT_Press.rt,Symbol,Shape,Ctx,Color,Stim_Num,Key_Num,Stim_Type,True_Key,Block_Type,Remap,Repeat_Count,Trial_Count,Grp,Block_Num,Prep_Time,Ctx_Prep_Time,Actual_Press,RT,Correct,Session,RT_Old_Iter.thisRepN,RT_Old_Iter.thisTrialN,RT_Old_Iter.thisN,RT_Old_Iter.thisIndex,RT_Old_Iter.ran,RT_Old_Block.thisRepN,RT_Old_Block.thisTrialN,RT_Old_Block.thisN,RT_Old_Block.thisIndex,RT_Old_Block.ran,Instr_End_Exp_Key.keys,Instr_End_Exp_Key.rt
"[[1,-1,-1],[-1,1,-1]]","[1,0,2]","[0,2,1]","[0,2,1]","[1,0,2]",0,0,0,0,1,0,"[1, -1, -1]",h,0,media/dcnb.png,-0.038,0.075,media/hand.png,media/check.png,media/cross.png,1,4,2021-01-11_00h44.10.845,CL_C2S3,2020.1.3,Win32,60,,,,,,,,,,,,,,,,,,,,,,,,,,,,,,,,,,,,,,,
"[[1,-1,-1],[-1,1,-1],[1,-1,-1],[-1,1,-1]]","[1,0,2]","[0,2,1]","[0,2,1]","[1,0,2]",0,1,1,1,1,1,"[-1, 1, -1]",u,1,media/dfnb.png,0.014,0.1,,,,1,4,2021-01-11_00h44.10.845,CL_C2S3,2020.1.3,Win32,60,,,,,,,,,,,,,,,,,,,,,,,,,,,,,,,,,,,,,,,
"[[1,-1,-1],[-1,1,-1],[1,-1,-1],[-1,1,-1],[1,-1,-1],[-1,1,-1]]","[1,0,2]","[0,2,1]","[0,2,1]","[1,0,2]",0,2,2,2,1,2,,i,0,media/dknb.png,0.057,0.08,,,,1,4,2021-01-11_00h44.10.845,CL_C2S3,2020.1.3,Win32,60,,,,,,,,,,,,,,,,,,,,,,,,,,,,,,,,,,,,,,,
,,,,,,,,,,,,,,,,,,,,1,4,2021-01-11_00h44.10.845,CL_C2S3,2020.1.3,Win32,60,h,1.31217,h,3.816695,h,1,1.19696,0,media/dcnb.png,2,"[-1,1,-1]",3,0,Symb,h,RT,0,0,0,1,1,99,99,h,1.19696,1,4,0,0,0,0,1,,,,,,,
,,,,,,,,,,,,,,,,,,,,1,4,2021-01-11_00h44.10.845,CL_C2S3,2020.1.3,Win32,60,,,,,u,1,0.90708,2,media/dknb.png,2,"[-1,1,-1]",5,0,Symb,u,RT,0,0,1,1,1,99,99,u,0.90708,1,4,1,0,1,0,1,,,,,,,
,,,,,,,,,,,,,,,,,,,,1,4,2021-01-11_00h44.10.845,CL_C2S3,2020.1.3,Win32,60,,,,,h,1,0.60251,0,media/dcnb.png,2,"[-1,1,-1]",3,0,Symb,h,RT,0,0,2,1,1,99,99,h,0.60251,1,4,2,0,2,0,1,,,,,,,
,,,,,,,,,,,,,,,,,,,,1,4,2021-01-11_00h44.10.845,CL_C2S3,2020.1.3,Win32,60,,,,,u,1,0.48999,2,media/dknb.png,2,"[-1,1,-1]",5,0,Symb,u,RT,0,0,3,1,1,99,99,u,0.48999,1,4,3,0,3,0,1,,,,,,,
,,,,,,,,,,,,,,,,,,,,1,4,2021-01-11_00h44.10.845,CL_C2S3,2020.1.3,Win32,60,,,,,h,1,0.854675,1,media/dfnb.png,1,"[1,-1,-1]",1,1,Symb,h,RT,0,0,4,1,1,99,99,h,0.854675,1,4,4,0,4,0,1,,,,,,,
,,,,,,,,,,,,,,,,,,,,1,4,2021-01-11_00h44.10.845,CL_C2S3,2020.1.3,Win32,60,,,,,h,1,0.39827,1,media/dfnb.png,1,"[1,-1,-1]",1,1,Symb,h,RT,0,0,5,1,1,99,99,h,0.39827,1,4,5,0,5,0,1,,,,,,,
,,,,,,,,,,,,,,,,,,,,1,4,2021-01-11_00h44.10.845,CL_C2S3,2020.1.3,Win32,60,,,,,i,1,0.72035,2,media/dknb.png,1,"[1,-1,-1]",2,0,Symb,i,RT,0,0,6,1,1,99,99,i,0.72035,1,4,6,0,6,0,1,,,,,,,
,,,,,,,,,,,,,,,,,,,,1,4,2021-01-11_00h44.10.845,CL_C2S3,2020.1.3,Win32,60,,,,,i,1,0.426665,2,media/dknb.png,1,"[1,-1,-1]",2,0,Symb,i,RT,0,0,7,1,1,99,99,i,0.426665,1,4,7,0,7,0,1,,,,,,,
,,,,,,,,,,,,,,,,,,,,1,4,2021-01-11_00h44.10.845,CL_C2S3,2020.1.3,Win32,60,,,,,i,1,0.37142,1,media/dfnb.png,2,"[-1,1,-1]",4,1,Symb,i,RT,0,0,8,1,1,99,99,i,0.37142,1,4,8,0,8,0,1,,,,,,,
,,,,,,,,,,,,,,,,,,,,1,4,2021-01-11_00h44.10.845,CL_C2S3,2020.1.3,Win32,60,,,,,u,1,0.78703,0,media/dcnb.png,1,"[1,-1,-1]",0,0,Symb,u,RT,0,0,9,1,1,99,99,u,0.78703,1,4,9,0,9,0,1,,,,,,,
,,,,,,,,,,,,,,,,,,,,1,4,2021-01-11_00h44.10.845,CL_C2S3,2020.1.3,Win32,60,,,,,i,1,0.699815,1,media/dfnb.png,2,"[-1,1,-1]",4,1,Symb,i,RT,0,0,10,1,1,99,99,i,0.699815,1,4,10,0,10,0,1,,,,,,,
,,,,,,,,,,,,,,,,,,,,1,4,2021-01-11_00h44.10.845,CL_C2S3,2020.1.3,Win32,60,,,,,h,0,0.62244,0,media/dcnb.png,1,"[1,-1,-1]",0,0,Symb,u,RT,0,0,11,1,1,99,99,h,0.62244,0,4,11,0,11,0,1,,,,,,,
,,,,,,,,,,,,,,,,,,,,1,4,2021-01-11_00h44.10.845,CL_C2S3,2020.1.3,Win32,60,,,,,i,1,0.71672,2,media/dknb.png,1,"[1,-1,-1]",2,0,Symb,i,RT,0,0,12,1,1,99,99,i,0.71672,1,4,12,0,12,0,1,,,,,,,
,,,,,,,,,,,,,,,,,,,,1,4,2021-01-11_00h44.10.845,CL_C2S3,2020.1.3,Win32,60,,,,,h,0,0.894745,0,media/dcnb.png,1,"[1,-1,-1]",0,0,Symb,u,RT,0,0,13,1,1,99,99,h,0.894745,0,4,13,0,13,0,1,,,,,,,
,,,,,,,,,,,,,,,,,,,,1,4,2021-01-11_00h44.10.845,CL_C2S3,2020.1.3,Win32,60,,,,,h,1,0.84154,1,media/dfnb.png,1,"[1,-1,-1]",1,1,Symb,h,RT,0,0,14,1,1,99,99,h,0.84154,1,4,14,0,14,0,1,,,,,,,
,,,,,,,,,,,,,,,,,,,,1,4,2021-01-11_00h44.10.845,CL_C2S3,2020.1.3,Win32,60,,,,,i,1,0.598115,1,media/dfnb.png,2,"[-1,1,-1]",4,1,Symb,i,RT,0,0,15,1,1,99,99,i,0.598115,1,4,15,0,15,0,1,,,,,,,
,,,,,,,,,,,,,,,,,,,,1,4,2021-01-11_00h44.10.845,CL_C2S3,2020.1.3,Win32,60,,,,,h,1,0.98184,0,media/dcnb.png,2,"[-1,1,-1]",3,0,Symb,h,RT,0,0,16,1,1,99,99,h,0.98184,1,4,16,0,16,0,1,,,,,,,
,,,,,,,,,,,,,,,,,,,,1,4,2021-01-11_00h44.10.845,CL_C2S3,2020.1.3,Win32,60,,,,,u,1,0.817595,0,media/dcnb.png,1,"[1,-1,-1]",0,0,Symb,u,RT,0,0,17,1,1,99,99,u,0.817595,1,4,17,0,17,0,1,,,,,,,
,,,,,,,,,,,,,,,,,,,,1,4,2021-01-11_00h44.10.845,CL_C2S3,2020.1.3,Win32,60,,,,,h,1,0.73033,1,media/dfnb.png,1,"[1,-1,-1]",1,1,Symb,h,RT,0,0,18,1,1,99,99,h,0.73033,1,4,18,0,18,0,1,,,,,,,
,,,,,,,,,,,,,,,,,,,,1,4,2021-01-11_00h44.10.845,CL_C2S3,2020.1.3,Win32,60,,,,,h,1,1.36162,0,media/dcnb.png,2,"[-1,1,-1]",3,0,Symb,h,RT,0,0,19,1,1,99,99,h,1.36162,1,4,19,0,19,0,1,,,,,,,
,,,,,,,,,,,,,,,,,,,,1,4,2021-01-11_00h44.10.845,CL_C2S3,2020.1.3,Win32,60,,,,,u,1,0.707895,2,media/dknb.png,2,"[-1,1,-1]",5,0,Symb,u,RT,0,0,20,1,1,99,99,u,0.707895,1,4,20,0,20,0,1,,,,,,,
,,,,,,,,,,,,,,,,,,,,1,4,2021-01-11_00h44.10.845,CL_C2S3,2020.1.3,Win32,60,,,,,u,1,0.39891,2,media/dknb.png,2,"[-1,1,-1]",5,0,Symb,u,RT,0,0,21,1,1,99,99,u,0.39891,1,4,21,0,21,0,1,,,,,,,
,,,,,,,,,,,,,,,,,,,,1,4,2021-01-11_00h44.10.845,CL_C2S3,2020.1.3,Win32,60,,,,,i,1,0.869835,1,media/dfnb.png,2,"[-1,1,-1]",4,1,Symb,i,RT,0,0,22,1,1,99,99,i,0.869835,1,4,22,0,22,0,1,,,,,,,
,,,,,,,,,,,,,,,,,,,,1,4,2021-01-11_00h44.10.845,CL_C2S3,2020.1.3,Win32,60,,,,,i,1,0.61839,2,media/dknb.png,1,"[1,-1,-1]",2,0,Symb,i,RT,0,0,23,1,1,99,99,i,0.61839,1,4,23,0,23,0,1,,,,,,,
,,,,,,,,,,,,,,,,,,,,1,4,2021-01-11_00h44.10.845,CL_C2S3,2020.1.3,Win32,60,,,,,u,1,0.786945,2,media/dknb.png,2,"[-1,1,-1]",5,0,Symb,u,RT,0,0,24,1,1,99,99,u,0.786945,1,4,24,0,24,0,1,,,,,,,
,,,,,,,,,,,,,,,,,,,,1,4,2021-01-11_00h44.10.845,CL_C2S3,2020.1.3,Win32,60,,,,,h,1,0.89045,0,media/dcnb.png,2,"[-1,1,-1]",3,0,Symb,h,RT,0,0,25,1,1,99,99,h,0.89045,1,4,25,0,25,0,1,,,,,,,
,,,,,,,,,,,,,,,,,,,,1,4,2021-01-11_00h44.10.845,CL_C2S3,2020.1.3,Win32,60,,,,,h,1,0.60313,1,media/dfnb.png,1,"[1,-1,-1]",1,1,Symb,h,RT,0,0,26,1,1,99,99,h,0.60313,1,4,26,0,26,0,1,,,,,,,
,,,,,,,,,,,,,,,,,,,,1,4,2021-01-11_00h44.10.845,CL_C2S3,2020.1.3,Win32,60,,,,,i,1,0.81459,2,media/dknb.png,1,"[1,-1,-1]",2,0,Symb,i,RT,0,0,27,1,1,99,99,i,0.81459,1,4,27,0,27,0,1,,,,,,,
,,,,,,,,,,,,,,,,,,,,1,4,2021-01-11_00h44.10.845,CL_C2S3,2020.1.3,Win32,60,,,,,i,1,0.66494,1,media/dfnb.png,2,"[-1,1,-1]",4,1,Symb,i,RT,0,0,28,1,1,99,99,i,0.66494,1,4,28,0,28,0,1,,,,,,,
,,,,,,,,,,,,,,,,,,,,1,4,2021-01-11_00h44.10.845,CL_C2S3,2020.1.3,Win32,60,,,,,u,1,0.78903,0,media/dcnb.png,1,"[1,-1,-1]",0,0,Symb,u,RT,0,0,29,1,1,99,99,u,0.78903,1,4,29,0,29,0,1,,,,,,,
,,,,,,,,,,,,,,,,,,,,1,4,2021-01-11_00h44.10.845,CL_C2S3,2020.1.3,Win32,60,,,,,i,1,0.84821,1,media/dfnb.png,2,"[-1,1,-1]",4,1,Symb,i,RT,0,0,30,1,1,99,99,i,0.84821,1,4,30,0,30,0,1,,,,,,,
,,,,,,,,,,,,,,,,,,,,1,4,2021-01-11_00h44.10.845,CL_C2S3,2020.1.3,Win32,60,,,,,i,1,0.85299,2,media/dknb.png,1,"[1,-1,-1]",2,0,Symb,i,RT,0,0,31,1,1,99,99,i,0.85299,1,4,31,0,31,0,1,,,,,,,
,,,,,,,,,,,,,,,,,,,,1,4,2021-01-11_00h44.10.845,CL_C2S3,2020.1.3,Win32,60,,,,,u,1,0.944835,0,media/dcnb.png,1,"[1,-1,-1]",0,0,Symb,u,RT,0,0,32,1,1,99,99,u,0.944835,1,4,32,0,32,0,1,,,,,,,
,,,,,,,,,,,,,,,,,,,,1,4,2021-01-11_00h44.10.845,CL_C2S3,2020.1.3,Win32,60,,,,,i,1,0.610485,2,media/dknb.png,1,"[1,-1,-1]",2,0,Symb,i,RT,0,0,33,1,1,99,99,i,0.610485,1,4,33,0,33,0,1,,,,,,,
,,,,,,,,,,,,,,,,,,,,1,4,2021-01-11_00h44.10.845,CL_C2S3,2020.1.3,Win32,60,,,,,u,1,0.604105,0,media/dcnb.png,1,"[1,-1,-1]",0,0,Symb,u,RT,0,0,34,1,1,99,99,u,0.604105,1,4,34,0,34,0,1,,,,,,,
,,,,,,,,,,,,,,,,,,,,1,4,2021-01-11_00h44.10.845,CL_C2S3,2020.1.3,Win32,60,,,,,i,1,0.56869,1,media/dfnb.png,2,"[-1,1,-1]",4,1,Symb,i,RT,0,0,35,1,1,99,99,i,0.56869,1,4,35,0,35,0,1,,,,,,,
,,,,,,,,,,,,,,,,,,,,1,4,2021-01-11_00h44.10.845,CL_C2S3,2020.1.3,Win32,60,,,,,h,1,0.61071,1,media/dfnb.png,1,"[1,-1,-1]",1,1,Symb,h,RT,0,0,36,1,1,99,99,h,0.61071,1,4,36,0,36,0,1,,,,,,,
,,,,,,,,,,,,,,,,,,,,1,4,2021-01-11_00h44.10.845,CL_C2S3,2020.1.3,Win32,60,,,,,h,1,0.716905,0,media/dcnb.png,2,"[-1,1,-1]",3,0,Symb,h,RT,0,0,37,1,1,99,99,h,0.716905,1,4,37,0,37,0,1,,,,,,,
,,,,,,,,,,,,,,,,,,,,1,4,2021-01-11_00h44.10.845,CL_C2S3,2020.1.3,Win32,60,,,,,h,1,0.536495,0,media/dcnb.png,2,"[-1,1,-1]",3,0,Symb,h,RT,0,0,38,1,1,99,99,h,0.536495,1,4,38,0,38,0,1,,,,,,,
,,,,,,,,,,,,,,,,,,,,1,4,2021-01-11_00h44.10.845,CL_C2S3,2020.1.3,Win32,60,,,,,u,1,0.59734,2,media/dknb.png,2,"[-1,1,-1]",5,0,Symb,u,RT,0,0,39,1,1,99,99,u,0.59734,1,4,39,0,39,0,1,,,,,,,
,,,,,,,,,,,,,,,,,,,,1,4,2021-01-11_00h44.10.845,CL_C2S3,2020.1.3,Win32,60,,,,,u,1,0.371185,2,media/dknb.png,2,"[-1,1,-1]",5,0,Symb,u,RT,0,0,40,1,1,99,99,u,0.371185,1,4,40,0,40,0,1,,,,,,,
,,,,,,,,,,,,,,,,,,,,1,4,2021-01-11_00h44.10.845,CL_C2S3,2020.1.3,Win32,60,,,,,h,1,0.54787,1,media/dfnb.png,1,"[1,-1,-1]",1,1,Symb,h,RT,0,0,41,1,1,99,99,h,0.54787,1,4,41,0,41,0,1,,,,,,,
,,,,,,,,,,,,,,,,,,,,1,4,2021-01-11_00h44.10.845,CL_C2S3,2020.1.3,Win32,60,,,,,i,1,0.481395,1,media/dfnb.png,2,"[-1,1,-1]",4,1,Symb,i,RT,0,0,42,1,1,99,99,i,0.481395,1,4,42,0,42,0,1,,,,,,,
,,,,,,,,,,,,,,,,,,,,1,4,2021-01-11_00h44.10.845,CL_C2S3,2020.1.3,Win32,60,,,,,h,1,0.709235,0,media/dcnb.png,2,"[-1,1,-1]",3,0,Symb,h,RT,0,0,43,1,1,99,99,h,0.709235,1,4,43,0,43,0,1,,,,,,,
,,,,,,,,,,,,,,,,,,,,1,4,2021-01-11_00h44.10.845,CL_C2S3,2020.1.3,Win32,60,,,,,h,1,0.88762,1,media/dfnb.png,1,"[1,-1,-1]",1,1,Symb,h,RT,0,0,44,1,1,99,99,h,0.88762,1,4,44,0,44,0,1,,,,,,,
,,,,,,,,,,,,,,,,,,,,1,4,2021-01-11_00h44.10.845,CL_C2S3,2020.1.3,Win32,60,,,,,u,1,0.661825,2,media/dknb.png,2,"[-1,1,-1]",5,0,Symb,u,RT,0,0,45,1,1,99,99,u,0.661825,1,4,45,0,45,0,1,,,,,,,
,,,,,,,,,,,,,,,,,,,,1,4,2021-01-11_00h44.10.845,CL_C2S3,2020.1.3,Win32,60,,,,,h,1,0.72046,1,media/dfnb.png,1,"[1,-1,-1]",1,1,Symb,h,RT,0,0,46,1,1,99,99,h,0.72046,1,4,46,0,46,0,1,,,,,,,
,,,,,,,,,,,,,,,,,,,,1,4,2021-01-11_00h44.10.845,CL_C2S3,2020.1.3,Win32,60,,,,,u,1,0.48074,2,media/dknb.png,2,"[-1,1,-1]",5,0,Symb,u,RT,0,0,47,1,1,99,99,u,0.48074,1,4,47,0,47,0,1,,,,,,,
,,,,,,,,,,,,,,,,,,,,1,4,2021-01-11_00h44.10.845,CL_C2S3,2020.1.3,Win32,60,,,,,h,0,0.57683,0,media/dcnb.png,1,"[1,-1,-1]",0,0,Symb,u,RT,0,0,48,1,1,99,99,h,0.57683,0,4,48,0,48,0,1,,,,,,,
,,,,,,,,,,,,,,,,,,,,1,4,2021-01-11_00h44.10.845,CL_C2S3,2020.1.3,Win32,60,,,,,i,1,0.83301,2,media/dknb.png,1,"[1,-1,-1]",2,0,Symb,i,RT,0,0,49,1,1,99,99,i,0.83301,1,4,49,0,49,0,1,,,,,,,
,,,,,,,,,,,,,,,,,,,,1,4,2021-01-11_00h44.10.845,CL_C2S3,2020.1.3,Win32,60,,,,,u,1,0.96386,0,media/dcnb.png,1,"[1,-1,-1]",0,0,Symb,u,RT,0,0,50,1,1,99,99,u,0.96386,1,4,50,0,50,0,1,,,,,,,
,,,,,,,,,,,,,,,,,,,,1,4,2021-01-11_00h44.10.845,CL_C2S3,2020.1.3,Win32,60,,,,,h,1,0.586765,0,media/dcnb.png,2,"[-1,1,-1]",3,0,Symb,h,RT,0,0,51,1,1,99,99,h,0.586765,1,4,51,0,51,0,1,,,,,,,
,,,,,,,,,,,,,,,,,,,,1,4,2021-01-11_00h44.10.845,CL_C2S3,2020.1.3,Win32,60,,,,,i,1,0.76639,1,media/dfnb.png,2,"[-1,1,-1]",4,1,Symb,i,RT,0,0,52,1,1,99,99,i,0.76639,1,4,52,0,52,0,1,,,,,,,
,,,,,,,,,,,,,,,,,,,,1,4,2021-01-11_00h44.10.845,CL_C2S3,2020.1.3,Win32,60,,,,,i,1,0.98514,2,media/dknb.png,1,"[1,-1,-1]",2,0,Symb,i,RT,0,0,53,1,1,99,99,i,0.98514,1,4,53,0,53,0,1,,,,,,,
,,,,,,,,,,,,,,,,,,,,1,4,2021-01-11_00h44.10.845,CL_C2S3,2020.1.3,Win32,60,,,,,h,1,0.76465,0,media/dcnb.png,2,"[-1,1,-1]",3,0,Symb,h,RT,0,0,54,1,1,99,99,h,0.76465,1,4,54,0,54,0,1,,,,,,,
,,,,,,,,,,,,,,,,,,,,1,4,2021-01-11_00h44.10.845,CL_C2S3,2020.1.3,Win32,60,,,,,u,1,0.57572,2,media/dknb.png,2,"[-1,1,-1]",5,0,Symb,u,RT,0,0,55,1,1,99,99,u,0.57572,1,4,55,0,55,0,1,,,,,,,
,,,,,,,,,,,,,,,,,,,,1,4,2021-01-11_00h44.10.845,CL_C2S3,2020.1.3,Win32,60,,,,,i,1,0.600615,2,media/dknb.png,1,"[1,-1,-1]",2,0,Symb,i,RT,0,0,56,1,1,99,99,i,0.600615,1,4,56,0,56,0,1,,,,,,,
,,,,,,,,,,,,,,,,,,,,1,4,2021-01-11_00h44.10.845,CL_C2S3,2020.1.3,Win32,60,,,,,h,1,0.581545,1,media/dfnb.png,1,"[1,-1,-1]",1,1,Symb,h,RT,0,0,57,1,1,99,99,h,0.581545,1,4,57,0,57,0,1,,,,,,,
,,,,,,,,,,,,,,,,,,,,1,4,2021-01-11_00h44.10.845,CL_C2S3,2020.1.3,Win32,60,,,,,h,0,0.79671,0,media/dcnb.png,1,"[1,-1,-1]",0,0,Symb,u,RT,0,0,58,1,1,99,99,h,0.79671,0,4,58,0,58,0,1,,,,,,,
,,,,,,,,,,,,,,,,,,,,1,4,2021-01-11_00h44.10.845,CL_C2S3,2020.1.3,Win32,60,,,,,i,1,0.575705,1,media/dfnb.png,2,"[-1,1,-1]",4,1,Symb,i,RT,0,0,59,1,1,99,99,i,0.575705,1,4,59,0,59,0,1,,,,,,,
,,,,,,,,,,,,,,,,,,,,1,4,2021-01-11_00h44.10.845,CL_C2S3,2020.1.3,Win32,60,,,,,u,1,1.02936,0,media/dcnb.png,1,"[1,-1,-1]",0,0,Symb,u,RT,0,0,60,1,1,99,99,u,1.02936,1,4,60,0,60,0,1,,,,,,,
,,,,,,,,,,,,,,,,,,,,1,4,2021-01-11_00h44.10.845,CL_C2S3,2020.1.3,Win32,60,,,,,i,1,0.7829,1,media/dfnb.png,2,"[-1,1,-1]",4,1,Symb,i,RT,0,0,61,1,1,99,99,i,0.7829,1,4,61,0,61,0,1,,,,,,,
,,,,,,,,,,,,,,,,,,,,1,4,2021-01-11_00h44.10.845,CL_C2S3,2020.1.3,Win32,60,,,,,h,1,0.5965,1,media/dfnb.png,1,"[1,-1,-1]",1,1,Symb,h,RT,0,0,62,1,1,99,99,h,0.5965,1,4,62,0,62,0,1,,,,,,,
,,,,,,,,,,,,,,,,,,,,1,4,2021-01-11_00h44.10.845,CL_C2S3,2020.1.3,Win32,60,,,,,u,1,0.716075,2,media/dknb.png,2,"[-1,1,-1]",5,0,Symb,u,RT,0,0,63,1,1,99,99,u,0.716075,1,4,63,0,63,0,1,,,,,,,
,,,,,,,,,,,,,,,,,,,,1,4,2021-01-11_00h44.10.845,CL_C2S3,2020.1.3,Win32,60,,,,,h,1,0.55046,0,media/dcnb.png,2,"[-1,1,-1]",3,0,Symb,h,RT,0,0,64,1,1,99,99,h,0.55046,1,4,64,0,64,0,1,,,,,,,
,,,,,,,,,,,,,,,,,,,,1,4,2021-01-11_00h44.10.845,CL_C2S3,2020.1.3,Win32,60,,,,,i,1,0.59836,2,media/dknb.png,1,"[1,-1,-1]",2,0,Symb,i,RT,0,0,65,1,1,99,99,i,0.59836,1,4,65,0,65,0,1,,,,,,,
,,,,,,,,,,,,,,,,,,,,1,4,2021-01-11_00h44.10.845,CL_C2S3,2020.1.3,Win32,60,,,,,h,1,0.736095,0,media/dcnb.png,2,"[-1,1,-1]",3,0,Symb,h,RT,0,0,66,1,1,99,99,h,0.736095,1,4,66,0,66,0,1,,,,,,,
,,,,,,,,,,,,,,,,,,,,1,4,2021-01-11_00h44.10.845,CL_C2S3,2020.1.3,Win32,60,,,,,i,1,0.752145,1,media/dfnb.png,2,"[-1,1,-1]",4,1,Symb,i,RT,0,0,67,1,1,99,99,i,0.752145,1,4,67,0,67,0,1,,,,,,,
,,,,,,,,,,,,,,,,,,,,1,4,2021-01-11_00h44.10.845,CL_C2S3,2020.1.3,Win32,60,,,,,i,1,0.840565,2,media/dknb.png,1,"[1,-1,-1]",2,0,Symb,i,RT,0,0,68,1,1,99,99,i,0.840565,1,4,68,0,68,0,1,,,,,,,
,,,,,,,,,,,,,,,,,,,,1,4,2021-01-11_00h44.10.845,CL_C2S3,2020.1.3,Win32,60,,,,,u,1,0.86182,0,media/dcnb.png,1,"[1,-1,-1]",0,0,Symb,u,RT,0,0,69,1,1,99,99,u,0.86182,1,4,69,0,69,0,1,,,,,,,
,,,,,,,,,,,,,,,,,,,,1,4,2021-01-11_00h44.10.845,CL_C2S3,2020.1.3,Win32,60,,,,,h,1,0.78171,1,media/dfnb.png,1,"[1,-1,-1]",1,1,Symb,h,RT,0,0,70,1,1,99,99,h,0.78171,1,4,70,0,70,0,1,,,,,,,
,,,,,,,,,,,,,,,,,,,,1,4,2021-01-11_00h44.10.845,CL_C2S3,2020.1.3,Win32,60,,,,,u,1,0.717925,2,media/dknb.png,2,"[-1,1,-1]",5,0,Symb,u,RT,0,0,71,1,1,99,99,u,0.717925,1,4,71,0,71,0,1,,,,,,,
,,,,,,,,,,,,,,,,,,,,1,4,2021-01-11_00h44.10.845,CL_C2S3,2020.1.3,Win32,60,,,,,h,1,1.00829,0,media/dcnb.png,2,"[-1,1,-1]",3,0,Symb,h,RT,0,0,72,1,1,99,99,h,1.00829,1,4,72,0,72,0,1,,,,,,,
,,,,,,,,,,,,,,,,,,,,1,4,2021-01-11_00h44.10.845,CL_C2S3,2020.1.3,Win32,60,,,,,i,1,0.593685,1,media/dfnb.png,2,"[-1,1,-1]",4,1,Symb,i,RT,0,0,73,1,1,99,99,i,0.593685,1,4,73,0,73,0,1,,,,,,,
,,,,,,,,,,,,,,,,,,,,1,4,2021-01-11_00h44.10.845,CL_C2S3,2020.1.3,Win32,60,,,,,h,1,0.589385,1,media/dfnb.png,1,"[1,-1,-1]",1,1,Symb,h,RT,0,0,74,1,1,99,99,h,0.589385,1,4,74,0,74,0,1,,,,,,,
,,,,,,,,,,,,,,,,,,,,1,4,2021-01-11_00h44.10.845,CL_C2S3,2020.1.3,Win32,60,,,,,u,1,0.69113,2,media/dknb.png,2,"[-1,1,-1]",5,0,Symb,u,RT,0,0,75,1,1,99,99,u,0.69113,1,4,75,0,75,0,1,,,,,,,
,,,,,,,,,,,,,,,,,,,,1,4,2021-01-11_00h44.10.845,CL_C2S3,2020.1.3,Win32,60,,,,,h,1,0.539685,0,media/dcnb.png,2,"[-1,1,-1]",3,0,Symb,h,RT,0,0,76,1,1,99,99,h,0.539685,1,4,76,0,76,0,1,,,,,,,
,,,,,,,,,,,,,,,,,,,,1,4,2021-01-11_00h44.10.845,CL_C2S3,2020.1.3,Win32,60,,,,,u,1,0.55791,0,media/dcnb.png,1,"[1,-1,-1]",0,0,Symb,u,RT,0,0,77,1,1,99,99,u,0.55791,1,4,77,0,77,0,1,,,,,,,
,,,,,,,,,,,,,,,,,,,,1,4,2021-01-11_00h44.10.845,CL_C2S3,2020.1.3,Win32,60,,,,,u,1,1.101255,0,media/dcnb.png,1,"[1,-1,-1]",0,0,Symb,u,RT,0,0,78,1,1,99,99,u,1.101255,1,4,78,0,78,0,1,,,,,,,
,,,,,,,,,,,,,,,,,,,,1,4,2021-01-11_00h44.10.845,CL_C2S3,2020.1.3,Win32,60,,,,,u,0,0.53222,2,media/dknb.png,1,"[1,-1,-1]",2,0,Symb,i,RT,0,0,79,1,1,99,99,u,0.53222,0,4,79,0,79,0,1,,,,,,,
,,,,,,,,,,,,,,,,,,,,1,4,2021-01-11_00h44.10.845,CL_C2S3,2020.1.3,Win32,60,,,,,i,1,0.433795,2,media/dknb.png,1,"[1,-1,-1]",2,0,Symb,i,RT,0,0,80,1,1,99,99,i,0.433795,1,4,80,0,80,0,1,,,,,,,
,,,,,,,,,,,,,,,,,,,,1,4,2021-01-11_00h44.10.845,CL_C2S3,2020.1.3,Win32,60,,,,,h,0,0.720595,1,media/dfnb.png,2,"[-1,1,-1]",4,1,Symb,i,RT,0,0,81,1,1,99,99,h,0.720595,0,4,81,0,81,0,1,,,,,,,
,,,,,,,,,,,,,,,,,,,,1,4,2021-01-11_00h44.10.845,CL_C2S3,2020.1.3,Win32,60,,,,,i,0,0.664595,1,media/dfnb.png,1,"[1,-1,-1]",1,1,Symb,h,RT,0,0,82,1,1,99,99,i,0.664595,0,4,82,0,82,0,1,,,,,,,
,,,,,,,,,,,,,,,,,,,,1,4,2021-01-11_00h44.10.845,CL_C2S3,2020.1.3,Win32,60,,,,,u,1,0.783455,2,media/dknb.png,2,"[-1,1,-1]",5,0,Symb,u,RT,0,0,83,1,1,99,99,u,0.783455,1,4,83,0,83,0,1,,,,,,,
,,,,,,,,,,,,,,,,,,,,1,4,2021-01-11_00h44.10.845,CL_C2S3,2020.1.3,Win32,60,,,,,i,1,0.490835,2,media/dknb.png,1,"[1,-1,-1]",2,0,Symb,i,RT,0,0,84,1,1,99,99,i,0.490835,1,4,84,0,84,0,1,,,,,,,
,,,,,,,,,,,,,,,,,,,,1,4,2021-01-11_00h44.10.845,CL_C2S3,2020.1.3,Win32,60,,,,,u,1,0.978085,0,media/dcnb.png,1,"[1,-1,-1]",0,0,Symb,u,RT,0,0,85,1,1,99,99,u,0.978085,1,4,85,0,85,0,1,,,,,,,
,,,,,,,,,,,,,,,,,,,,1,4,2021-01-11_00h44.10.845,CL_C2S3,2020.1.3,Win32,60,,,,,h,1,0.483105,0,media/dcnb.png,2,"[-1,1,-1]",3,0,Symb,h,RT,0,0,86,1,1,99,99,h,0.483105,1,4,86,0,86,0,1,,,,,,,
,,,,,,,,,,,,,,,,,,,,1,4,2021-01-11_00h44.10.845,CL_C2S3,2020.1.3,Win32,60,,,,,i,1,0.915175,1,media/dfnb.png,2,"[-1,1,-1]",4,1,Symb,i,RT,0,0,87,1,1,99,99,i,0.915175,1,4,87,0,87,0,1,,,,,,,
,,,,,,,,,,,,,,,,,,,,1,4,2021-01-11_00h44.10.845,CL_C2S3,2020.1.3,Win32,60,,,,,h,1,0.8699,1,media/dfnb.png,1,"[1,-1,-1]",1,1,Symb,h,RT,0,0,88,1,1,99,99,h,0.8699,1,4,88,0,88,0,1,,,,,,,
,,,,,,,,,,,,,,,,,,,,1,4,2021-01-11_00h44.10.845,CL_C2S3,2020.1.3,Win32,60,,,,,u,1,0.707,2,media/dknb.png,2,"[-1,1,-1]",5,0,Symb,u,RT,0,0,89,1,1,99,99,u,0.707,1,4,89,0,89,0,1,,,,,,,
,,,,,,,,,,,,,,,,,,,,1,4,2021-01-11_00h44.10.845,CL_C2S3,2020.1.3,Win32,60,,,,,u,1,0.970435,0,media/dcnb.png,1,"[1,-1,-1]",0,0,Symb,u,RT,0,0,90,1,1,99,99,u,0.970435,1,4,90,0,90,0,1,,,,,,,
,,,,,,,,,,,,,,,,,,,,1,4,2021-01-11_00h44.10.845,CL_C2S3,2020.1.3,Win32,60,,,,,u,1,0.443615,0,media/dcnb.png,1,"[1,-1,-1]",0,0,Symb,u,RT,0,0,91,1,1,99,99,u,0.443615,1,4,91,0,91,0,1,,,,,,,
,,,,,,,,,,,,,,,,,,,,1,4,2021-01-11_00h44.10.845,CL_C2S3,2020.1.3,Win32,60,,,,,u,1,0.77157,2,media/dknb.png,2,"[-1,1,-1]",5,0,Symb,u,RT,0,0,92,1,1,99,99,u,0.77157,1,4,92,0,92,0,1,,,,,,,
,,,,,,,,,,,,,,,,,,,,1,4,2021-01-11_00h44.10.845,CL_C2S3,2020.1.3,Win32,60,,,,,h,1,0.77633,0,media/dcnb.png,2,"[-1,1,-1]",3,0,Symb,h,RT,0,0,93,1,1,99,99,h,0.77633,1,4,93,0,93,0,1,,,,,,,
,,,,,,,,,,,,,,,,,,,,1,4,2021-01-11_00h44.10.845,CL_C2S3,2020.1.3,Win32,60,,,,,u,1,0.58889,2,media/dknb.png,2,"[-1,1,-1]",5,0,Symb,u,RT,0,0,94,1,1,99,99,u,0.58889,1,4,94,0,94,0,1,,,,,,,
,,,,,,,,,,,,,,,,,,,,1,4,2021-01-11_00h44.10.845,CL_C2S3,2020.1.3,Win32,60,,,,,i,1,0.498135,2,media/dknb.png,1,"[1,-1,-1]",2,0,Symb,i,RT,0,0,95,1,1,99,99,i,0.498135,1,4,95,0,95,0,1,,,,,,,
,,,,,,,,,,,,,,,,,,,,1,4,2021-01-11_00h44.10.845,CL_C2S3,2020.1.3,Win32,60,,,,,h,1,0.92953,0,media/dcnb.png,2,"[-1,1,-1]",3,0,Symb,h,RT,0,0,96,1,1,99,99,h,0.92953,1,4,96,0,96,0,1,,,,,,,
,,,,,,,,,,,,,,,,,,,,1,4,2021-01-11_00h44.10.845,CL_C2S3,2020.1.3,Win32,60,,,,,i,1,0.623625,1,media/dfnb.png,2,"[-1,1,-1]",4,1,Symb,i,RT,0,0,97,1,1,99,99,i,0.623625,1,4,97,0,97,0,1,,,,,,,
,,,,,,,,,,,,,,,,,,,,1,4,2021-01-11_00h44.10.845,CL_C2S3,2020.1.3,Win32,60,,,,,h,1,0.73514,1,media/dfnb.png,1,"[1,-1,-1]",1,1,Symb,h,RT,0,0,98,1,1,99,99,h,0.73514,1,4,98,0,98,0,1,,,,,,,
,,,,,,,,,,,,,,,,,,,,1,4,2021-01-11_00h44.10.845,CL_C2S3,2020.1.3,Win32,60,,,,,i,1,0.907945,2,media/dknb.png,1,"[1,-1,-1]",2,0,Symb,i,RT,0,0,99,1,1,99,99,i,0.907945,1,4,99,0,99,0,1,,,,,,,
,,,,,,,,,,,,,,,,,,,,1,4,2021-01-11_00h44.10.845,CL_C2S3,2020.1.3,Win32,60,,,,,i,1,0.708695,1,media/dfnb.png,2,"[-1,1,-1]",4,1,Symb,i,RT,0,0,100,1,1,99,99,i,0.708695,1,4,100,0,100,0,1,,,,,,,
,,,,,,,,,,,,,,,,,,,,1,4,2021-01-11_00h44.10.845,CL_C2S3,2020.1.3,Win32,60,,,,,h,1,0.8517,1,media/dfnb.png,1,"[1,-1,-1]",1,1,Symb,h,RT,0,0,101,1,1,99,99,h,0.8517,1,4,101,0,101,0,1,,,,,,,
,,,,,,,,,,,,,,,,,,,,1,4,2021-01-11_00h44.10.845,CL_C2S3,2020.1.3,Win32,60,,,,,u,0,0.677955,2,media/dknb.png,1,"[1,-1,-1]",2,0,Symb,i,RT,0,0,102,1,1,99,99,u,0.677955,0,4,102,0,102,0,1,,,,,,,
,,,,,,,,,,,,,,,,,,,,1,4,2021-01-11_00h44.10.845,CL_C2S3,2020.1.3,Win32,60,,,,,h,1,0.598625,0,media/dcnb.png,2,"[-1,1,-1]",3,0,Symb,h,RT,0,0,103,1,1,99,99,h,0.598625,1,4,103,0,103,0,1,,,,,,,
,,,,,,,,,,,,,,,,,,,,1,4,2021-01-11_00h44.10.845,CL_C2S3,2020.1.3,Win32,60,,,,,h,1,1.10367,1,media/dfnb.png,1,"[1,-1,-1]",1,1,Symb,h,RT,0,0,104,1,1,99,99,h,1.10367,1,4,104,0,104,0,1,,,,,,,
,,,,,,,,,,,,,,,,,,,,1,4,2021-01-11_00h44.10.845,CL_C2S3,2020.1.3,Win32,60,,,,,h,1,0.553495,1,media/dfnb.png,1,"[1,-1,-1]",1,1,Symb,h,RT,0,0,105,1,1,99,99,h,0.553495,1,4,105,0,105,0,1,,,,,,,
,,,,,,,,,,,,,,,,,,,,1,4,2021-01-11_00h44.10.845,CL_C2S3,2020.1.3,Win32,60,,,,,u,1,0.632245,2,media/dknb.png,2,"[-1,1,-1]",5,0,Symb,u,RT,0,0,106,1,1,99,99,u,0.632245,1,4,106,0,106,0,1,,,,,,,
,,,,,,,,,,,,,,,,,,,,1,4,2021-01-11_00h44.10.845,CL_C2S3,2020.1.3,Win32,60,,,,,h,0,1.130905,0,media/dcnb.png,1,"[1,-1,-1]",0,0,Symb,u,RT,0,0,107,1,1,99,99,h,1.130905,0,4,107,0,107,0,1,,,,,,,
,,,,,,,,,,,,,,,,,,,,1,4,2021-01-11_00h44.10.845,CL_C2S3,2020.1.3,Win32,60,,,,,u,1,0.46186,0,media/dcnb.png,1,"[1,-1,-1]",0,0,Symb,u,RT,0,0,108,1,1,99,99,u,0.46186,1,4,108,0,108,0,1,,,,,,,
,,,,,,,,,,,,,,,,,,,,1,4,2021-01-11_00h44.10.845,CL_C2S3,2020.1.3,Win32,60,,,,,u,0,0.587855,2,media/dknb.png,1,"[1,-1,-1]",2,0,Symb,i,RT,0,0,109,1,1,99,99,u,0.587855,0,4,109,0,109,0,1,,,,,,,
,,,,,,,,,,,,,,,,,,,,1,4,2021-01-11_00h44.10.845,CL_C2S3,2020.1.3,Win32,60,,,,,h,0,0.632195,1,media/dfnb.png,2,"[-1,1,-1]",4,1,Symb,i,RT,0,0,110,1,1,99,99,h,0.632195,0,4,110,0,110,0,1,,,,,,,
,,,,,,,,,,,,,,,,,,,,1,4,2021-01-11_00h44.10.845,CL_C2S3,2020.1.3,Win32,60,,,,,i,1,0.500575,1,media/dfnb.png,2,"[-1,1,-1]",4,1,Symb,i,RT,0,0,111,1,1,99,99,i,0.500575,1,4,111,0,111,0,1,,,,,,,
,,,,,,,,,,,,,,,,,,,,1,4,2021-01-11_00h44.10.845,CL_C2S3,2020.1.3,Win32,60,,,,,u,1,0.57328,2,media/dknb.png,2,"[-1,1,-1]",5,0,Symb,u,RT,0,0,112,1,1,99,99,u,0.57328,1,4,112,0,112,0,1,,,,,,,
,,,,,,,,,,,,,,,,,,,,1,4,2021-01-11_00h44.10.845,CL_C2S3,2020.1.3,Win32,60,,,,,h,1,0.51923,0,media/dcnb.png,2,"[-1,1,-1]",3,0,Symb,h,RT,0,0,113,1,1,99,99,h,0.51923,1,4,113,0,113,0,1,,,,,,,
,,,,,,,,,,,,,,,,,,,,1,4,2021-01-11_00h44.10.845,CL_C2S3,2020.1.3,Win32,60,,,,,i,1,0.5133,1,media/dfnb.png,2,"[-1,1,-1]",4,1,Symb,i,RT,0,0,114,1,1,99,99,i,0.5133,1,4,114,0,114,0,1,,,,,,,
,,,,,,,,,,,,,,,,,,,,1,4,2021-01-11_00h44.10.845,CL_C2S3,2020.1.3,Win32,60,,,,,h,1,0.868835,0,media/dcnb.png,2,"[-1,1,-1]",3,0,Symb,h,RT,0,0,115,1,1,99,99,h,0.868835,1,4,115,0,115,0,1,,,,,,,
,,,,,,,,,,,,,,,,,,,,1,4,2021-01-11_00h44.10.845,CL_C2S3,2020.1.3,Win32,60,,,,,u,1,0.953985,2,media/dknb.png,2,"[-1,1,-1]",5,0,Symb,u,RT,0,0,116,1,1,99,99,u,0.953985,1,4,116,0,116,0,1,,,,,,,
,,,,,,,,,,,,,,,,,,,,1,4,2021-01-11_00h44.10.845,CL_C2S3,2020.1.3,Win32,60,,,,,i,1,0.494405,2,media/dknb.png,1,"[1,-1,-1]",2,0,Symb,i,RT,0,0,117,1,1,99,99,i,0.494405,1,4,117,0,117,0,1,,,,,,,
,,,,,,,,,,,,,,,,,,,,1,4,2021-01-11_00h44.10.845,CL_C2S3,2020.1.3,Win32,60,,,,,h,0,1.73248,0,media/dcnb.png,1,"[1,-1,-1]",0,0,Symb,u,RT,0,0,118,1,1,99,99,h,1.73248,0,4,118,0,118,0,1,,,,,,,
,,,,,,,,,,,,,,,,,,,,1,4,2021-01-11_00h44.10.845,CL_C2S3,2020.1.3,Win32,60,,,,,h,1,0.815185,1,media/dfnb.png,1,"[1,-1,-1]",1,1,Symb,h,RT,0,0,119,1,1,99,99,h,0.815185,1,4,119,0,119,0,1,,,,,,,
,,,,,,,,,,,,,,,,,,,,1,4,2021-01-11_00h44.10.845,CL_C2S3,2020.1.3,Win32,60,,,,,,,,,,,,,,,,,,,,,,,,,,,,,,,,,0,0,0,0,1,,
,,,,,,,,,,,,,,,,,,,,1,4,2021-01-11_00h44.10.845,CL_C2S3,2020.1.3,Win32,60,,,h,3.09925,u,1,1.01817,0,media/dcnb.png,1,"[1,-1,-1]",0,0,Symb,u,RT,0,0,0,1,2,99,99,u,1.01817,1,4,0,0,0,0,1,,,,,,,
,,,,,,,,,,,,,,,,,,,,1,4,2021-01-11_00h44.10.845,CL_C2S3,2020.1.3,Win32,60,,,,,i,1,0.77299,2,media/dknb.png,1,"[1,-1,-1]",2,0,Symb,i,RT,0,0,1,1,2,99,99,i,0.77299,1,4,1,0,1,0,1,,,,,,,
,,,,,,,,,,,,,,,,,,,,1,4,2021-01-11_00h44.10.845,CL_C2S3,2020.1.3,Win32,60,,,,,h,1,0.66389,0,media/dcnb.png,2,"[-1,1,-1]",3,0,Symb,h,RT,0,0,2,1,2,99,99,h,0.66389,1,4,2,0,2,0,1,,,,,,,
,,,,,,,,,,,,,,,,,,,,1,4,2021-01-11_00h44.10.845,CL_C2S3,2020.1.3,Win32,60,,,,,u,0,0.649115,2,media/dknb.png,1,"[1,-1,-1]",2,0,Symb,i,RT,0,0,3,1,2,99,99,u,0.649115,0,4,3,0,3,0,1,,,,,,,
,,,,,,,,,,,,,,,,,,,,1,4,2021-01-11_00h44.10.845,CL_C2S3,2020.1.3,Win32,60,,,,,h,1,0.87293,1,media/dfnb.png,1,"[1,-1,-1]",1,1,Symb,h,RT,0,0,4,1,2,99,99,h,0.87293,1,4,4,0,4,0,1,,,,,,,
,,,,,,,,,,,,,,,,,,,,1,4,2021-01-11_00h44.10.845,CL_C2S3,2020.1.3,Win32,60,,,,,i,1,1.070375,1,media/dfnb.png,2,"[-1,1,-1]",4,1,Symb,i,RT,0,0,5,1,2,99,99,i,1.070375,1,4,5,0,5,0,1,,,,,,,
,,,,,,,,,,,,,,,,,,,,1,4,2021-01-11_00h44.10.845,CL_C2S3,2020.1.3,Win32,60,,,,,u,1,0.909815,2,media/dknb.png,2,"[-1,1,-1]",5,0,Symb,u,RT,0,0,6,1,2,99,99,u,0.909815,1,4,6,0,6,0,1,,,,,,,
,,,,,,,,,,,,,,,,,,,,1,4,2021-01-11_00h44.10.845,CL_C2S3,2020.1.3,Win32,60,,,,,i,1,1.182435,1,media/dfnb.png,2,"[-1,1,-1]",4,1,Symb,i,RT,0,0,7,1,2,99,99,i,1.182435,1,4,7,0,7,0,1,,,,,,,
,,,,,,,,,,,,,,,,,,,,1,4,2021-01-11_00h44.10.845,CL_C2S3,2020.1.3,Win32,60,,,,,u,1,0.65557,0,media/dcnb.png,1,"[1,-1,-1]",0,0,Symb,u,RT,0,0,8,1,2,99,99,u,0.65557,1,4,8,0,8,0,1,,,,,,,
,,,,,,,,,,,,,,,,,,,,1,4,2021-01-11_00h44.10.845,CL_C2S3,2020.1.3,Win32,60,,,,,h,1,0.586635,0,media/dcnb.png,2,"[-1,1,-1]",3,0,Symb,h,RT,0,0,9,1,2,99,99,h,0.586635,1,4,9,0,9,0,1,,,,,,,
,,,,,,,,,,,,,,,,,,,,1,4,2021-01-11_00h44.10.845,CL_C2S3,2020.1.3,Win32,60,,,,,u,1,0.55655,2,media/dknb.png,2,"[-1,1,-1]",5,0,Symb,u,RT,0,0,10,1,2,99,99,u,0.55655,1,4,10,0,10,0,1,,,,,,,
,,,,,,,,,,,,,,,,,,,,1,4,2021-01-11_00h44.10.845,CL_C2S3,2020.1.3,Win32,60,,,,,h,1,0.53486,1,media/dfnb.png,1,"[1,-1,-1]",1,1,Symb,h,RT,0,0,11,1,2,99,99,h,0.53486,1,4,11,0,11,0,1,,,,,,,
,,,,,,,,,,,,,,,,,,,,1,4,2021-01-11_00h44.10.845,CL_C2S3,2020.1.3,Win32,60,,,,,u,0,0.55019,2,media/dknb.png,1,"[1,-1,-1]",2,0,Symb,i,RT,0,0,12,1,2,99,99,u,0.55019,0,4,12,0,12,0,1,,,,,,,
,,,,,,,,,,,,,,,,,,,,1,4,2021-01-11_00h44.10.845,CL_C2S3,2020.1.3,Win32,60,,,,,u,1,0.998655,2,media/dknb.png,2,"[-1,1,-1]",5,0,Symb,u,RT,0,0,13,1,2,99,99,u,0.998655,1,4,13,0,13,0,1,,,,,,,
,,,,,,,,,,,,,,,,,,,,1,4,2021-01-11_00h44.10.845,CL_C2S3,2020.1.3,Win32,60,,,,,h,1,0.58601,1,media/dfnb.png,1,"[1,-1,-1]",1,1,Symb,h,RT,0,0,14,1,2,99,99,h,0.58601,1,4,14,0,14,0,1,,,,,,,
,,,,,,,,,,,,,,,,,,,,1,4,2021-01-11_00h44.10.845,CL_C2S3,2020.1.3,Win32,60,,,,,h,1,2.005305,0,media/dcnb.png,2,"[-1,1,-1]",3,0,Symb,h,RT,0,0,15,1,2,99,99,h,2.005305,1,4,15,0,15,0,1,,,,,,,
,,,,,,,,,,,,,,,,,,,,1,4,2021-01-11_00h44.10.845,CL_C2S3,2020.1.3,Win32,60,,,,,h,1,0.498005,0,media/dcnb.png,2,"[-1,1,-1]",3,0,Symb,h,RT,0,0,16,1,2,99,99,h,0.498005,1,4,16,0,16,0,1,,,,,,,
,,,,,,,,,,,,,,,,,,,,1,4,2021-01-11_00h44.10.845,CL_C2S3,2020.1.3,Win32,60,,,,,i,1,0.732415,2,media/dknb.png,1,"[1,-1,-1]",2,0,Symb,i,RT,0,0,17,1,2,99,99,i,0.732415,1,4,17,0,17,0,1,,,,,,,
,,,,,,,,,,,,,,,,,,,,1,4,2021-01-11_00h44.10.845,CL_C2S3,2020.1.3,Win32,60,,,,,u,1,0.611105,2,media/dknb.png,2,"[-1,1,-1]",5,0,Symb,u,RT,0,0,18,1,2,99,99,u,0.611105,1,4,18,0,18,0,1,,,,,,,
,,,,,,,,,,,,,,,,,,,,1,4,2021-01-11_00h44.10.845,CL_C2S3,2020.1.3,Win32,60,,,,,i,1,0.720715,1,media/dfnb.png,2,"[-1,1,-1]",4,1,Symb,i,RT,0,0,19,1,2,99,99,i,0.720715,1,4,19,0,19,0,1,,,,,,,
,,,,,,,,,,,,,,,,,,,,1,4,2021-01-11_00h44.10.845,CL_C2S3,2020.1.3,Win32,60,,,,,u,1,1.260155,0,media/dcnb.png,1,"[1,-1,-1]",0,0,Symb,u,RT,0,0,20,1,2,99,99,u,1.260155,1,4,20,0,20,0,1,,,,,,,
,,,,,,,,,,,,,,,,,,,,1,4,2021-01-11_00h44.10.845,CL_C2S3,2020.1.3,Win32,60,,,,,i,1,0.762935,1,media/dfnb.png,2,"[-1,1,-1]",4,1,Symb,i,RT,0,0,21,1,2,99,99,i,0.762935,1,4,21,0,21,0,1,,,,,,,
,,,,,,,,,,,,,,,,,,,,1,4,2021-01-11_00h44.10.845,CL_C2S3,2020.1.3,Win32,60,,,,,u,1,0.98553,0,media/dcnb.png,1,"[1,-1,-1]",0,0,Symb,u,RT,0,0,22,1,2,99,99,u,0.98553,1,4,22,0,22,0,1,,,,,,,
,,,,,,,,,,,,,,,,,,,,1,4,2021-01-11_00h44.10.845,CL_C2S3,2020.1.3,Win32,60,,,,,h,1,0.65792,1,media/dfnb.png,1,"[1,-1,-1]",1,1,Symb,h,RT,0,0,23,1,2,99,99,h,0.65792,1,4,23,0,23,0,1,,,,,,,
,,,,,,,,,,,,,,,,,,,,1,4,2021-01-11_00h44.10.845,CL_C2S3,2020.1.3,Win32,60,,,,,u,1,0.842685,0,media/dcnb.png,1,"[1,-1,-1]",0,0,Symb,u,RT,0,0,24,1,2,99,99,u,0.842685,1,4,24,0,24,0,1,,,,,,,
,,,,,,,,,,,,,,,,,,,,1,4,2021-01-11_00h44.10.845,CL_C2S3,2020.1.3,Win32,60,,,,,i,1,0.75556,2,media/dknb.png,1,"[1,-1,-1]",2,0,Symb,i,RT,0,0,25,1,2,99,99,i,0.75556,1,4,25,0,25,0,1,,,,,,,
,,,,,,,,,,,,,,,,,,,,1,4,2021-01-11_00h44.10.845,CL_C2S3,2020.1.3,Win32,60,,,,,u,1,0.600015,2,media/dknb.png,2,"[-1,1,-1]",5,0,Symb,u,RT,0,0,26,1,2,99,99,u,0.600015,1,4,26,0,26,0,1,,,,,,,
,,,,,,,,,,,,,,,,,,,,1,4,2021-01-11_00h44.10.845,CL_C2S3,2020.1.3,Win32,60,,,,,h,1,0.724665,0,media/dcnb.png,2,"[-1,1,-1]",3,0,Symb,h,RT,0,0,27,1,2,99,99,h,0.724665,1,4,27,0,27,0,1,,,,,,,
,,,,,,,,,,,,,,,,,,,,1,4,2021-01-11_00h44.10.845,CL_C2S3,2020.1.3,Win32,60,,,,,i,1,0.73255,1,media/dfnb.png,2,"[-1,1,-1]",4,1,Symb,i,RT,0,0,28,1,2,99,99,i,0.73255,1,4,28,0,28,0,1,,,,,,,
,,,,,,,,,,,,,,,,,,,,1,4,2021-01-11_00h44.10.845,CL_C2S3,2020.1.3,Win32,60,,,,,h,1,0.65107,1,media/dfnb.png,1,"[1,-1,-1]",1,1,Symb,h,RT,0,0,29,1,2,99,99,h,0.65107,1,4,29,0,29,0,1,,,,,,,
,,,,,,,,,,,,,,,,,,,,1,4,2021-01-11_00h44.10.845,CL_C2S3,2020.1.3,Win32,60,,,,,u,1,0.80732,0,media/dcnb.png,1,"[1,-1,-1]",0,0,Symb,u,RT,0,0,30,1,2,99,99,u,0.80732,1,4,30,0,30,0,1,,,,,,,
,,,,,,,,,,,,,,,,,,,,1,4,2021-01-11_00h44.10.845,CL_C2S3,2020.1.3,Win32,60,,,,,h,1,0.78094,1,media/dfnb.png,1,"[1,-1,-1]",1,1,Symb,h,RT,0,0,31,1,2,99,99,h,0.78094,1,4,31,0,31,0,1,,,,,,,
,,,,,,,,,,,,,,,,,,,,1,4,2021-01-11_00h44.10.845,CL_C2S3,2020.1.3,Win32,60,,,,,h,1,0.46487,1,media/dfnb.png,1,"[1,-1,-1]",1,1,Symb,h,RT,0,0,32,1,2,99,99,h,0.46487,1,4,32,0,32,0,1,,,,,,,
,,,,,,,,,,,,,,,,,,,,1,4,2021-01-11_00h44.10.845,CL_C2S3,2020.1.3,Win32,60,,,,,i,1,0.63602,1,media/dfnb.png,2,"[-1,1,-1]",4,1,Symb,i,RT,0,0,33,1,2,99,99,i,0.63602,1,4,33,0,33,0,1,,,,,,,
,,,,,,,,,,,,,,,,,,,,1,4,2021-01-11_00h44.10.845,CL_C2S3,2020.1.3,Win32,60,,,,,u,1,0.563105,2,media/dknb.png,2,"[-1,1,-1]",5,0,Symb,u,RT,0,0,34,1,2,99,99,u,0.563105,1,4,34,0,34,0,1,,,,,,,
,,,,,,,,,,,,,,,,,,,,1,4,2021-01-11_00h44.10.845,CL_C2S3,2020.1.3,Win32,60,,,,,u,1,0.40499,2,media/dknb.png,2,"[-1,1,-1]",5,0,Symb,u,RT,0,0,35,1,2,99,99,u,0.40499,1,4,35,0,35,0,1,,,,,,,
,,,,,,,,,,,,,,,,,,,,1,4,2021-01-11_00h44.10.845,CL_C2S3,2020.1.3,Win32,60,,,,,i,1,0.516935,2,media/dknb.png,1,"[1,-1,-1]",2,0,Symb,i,RT,0,0,36,1,2,99,99,i,0.516935,1,4,36,0,36,0,1,,,,,,,
,,,,,,,,,,,,,,,,,,,,1,4,2021-01-11_00h44.10.845,CL_C2S3,2020.1.3,Win32,60,,,,,h,0,0.713425,1,media/dfnb.png,2,"[-1,1,-1]",4,1,Symb,i,RT,0,0,37,1,2,99,99,h,0.713425,0,4,37,0,37,0,1,,,,,,,
,,,,,,,,,,,,,,,,,,,,1,4,2021-01-11_00h44.10.845,CL_C2S3,2020.1.3,Win32,60,,,,,h,1,0.91516,0,media/dcnb.png,2,"[-1,1,-1]",3,0,Symb,h,RT,0,0,38,1,2,99,99,h,0.91516,1,4,38,0,38,0,1,,,,,,,
,,,,,,,,,,,,,,,,,,,,1,4,2021-01-11_00h44.10.845,CL_C2S3,2020.1.3,Win32,60,,,,,h,1,0.77454,0,media/dcnb.png,2,"[-1,1,-1]",3,0,Symb,h,RT,0,0,39,1,2,99,99,h,0.77454,1,4,39,0,39,0,1,,,,,,,
,,,,,,,,,,,,,,,,,,,,1,4,2021-01-11_00h44.10.845,CL_C2S3,2020.1.3,Win32,60,,,,,u,1,0.59336,0,media/dcnb.png,1,"[1,-1,-1]",0,0,Symb,u,RT,0,0,40,1,2,99,99,u,0.59336,1,4,40,0,40,0,1,,,,,,,
,,,,,,,,,,,,,,,,,,,,1,4,2021-01-11_00h44.10.845,CL_C2S3,2020.1.3,Win32,60,,,,,i,1,0.704425,2,media/dknb.png,1,"[1,-1,-1]",2,0,Symb,i,RT,0,0,41,1,2,99,99,i,0.704425,1,4,41,0,41,0,1,,,,,,,
,,,,,,,,,,,,,,,,,,,,1,4,2021-01-11_00h44.10.845,CL_C2S3,2020.1.3,Win32,60,,,,,h,0,0.61863,1,media/dfnb.png,2,"[-1,1,-1]",4,1,Symb,i,RT,0,0,42,1,2,99,99,h,0.61863,0,4,42,0,42,0,1,,,,,,,
,,,,,,,,,,,,,,,,,,,,1,4,2021-01-11_00h44.10.845,CL_C2S3,2020.1.3,Win32,60,,,,,h,1,0.832,0,media/dcnb.png,2,"[-1,1,-1]",3,0,Symb,h,RT,0,0,43,1,2,99,99,h,0.832,1,4,43,0,43,0,1,,,,,,,
,,,,,,,,,,,,,,,,,,,,1,4,2021-01-11_00h44.10.845,CL_C2S3,2020.1.3,Win32,60,,,,,h,1,0.667515,1,media/dfnb.png,1,"[1,-1,-1]",1,1,Symb,h,RT,0,0,44,1,2,99,99,h,0.667515,1,4,44,0,44,0,1,,,,,,,
,,,,,,,,,,,,,,,,,,,,1,4,2021-01-11_00h44.10.845,CL_C2S3,2020.1.3,Win32,60,,,,,u,0,0.547365,2,media/dknb.png,1,"[1,-1,-1]",2,0,Symb,i,RT,0,0,45,1,2,99,99,u,0.547365,0,4,45,0,45,0,1,,,,,,,
,,,,,,,,,,,,,,,,,,,,1,4,2021-01-11_00h44.10.845,CL_C2S3,2020.1.3,Win32,60,,,,,i,1,0.713565,2,media/dknb.png,1,"[1,-1,-1]",2,0,Symb,i,RT,0,0,46,1,2,99,99,i,0.713565,1,4,46,0,46,0,1,,,,,,,
,,,,,,,,,,,,,,,,,,,,1,4,2021-01-11_00h44.10.845,CL_C2S3,2020.1.3,Win32,60,,,,,u,1,0.951735,2,media/dknb.png,2,"[-1,1,-1]",5,0,Symb,u,RT,0,0,47,1,2,99,99,u,0.951735,1,4,47,0,47,0,1,,,,,,,
,,,,,,,,,,,,,,,,,,,,1,4,2021-01-11_00h44.10.845,CL_C2S3,2020.1.3,Win32,60,,,,,h,0,1.419755,0,media/dcnb.png,1,"[1,-1,-1]",0,0,Symb,u,RT,0,0,48,1,2,99,99,h,1.419755,0,4,48,0,48,0,1,,,,,,,
,,,,,,,,,,,,,,,,,,,,1,4,2021-01-11_00h44.10.845,CL_C2S3,2020.1.3,Win32,60,,,,,u,1,0.3989,0,media/dcnb.png,1,"[1,-1,-1]",0,0,Symb,u,RT,0,0,49,1,2,99,99,u,0.3989,1,4,49,0,49,0,1,,,,,,,
,,,,,,,,,,,,,,,,,,,,1,4,2021-01-11_00h44.10.845,CL_C2S3,2020.1.3,Win32,60,,,,,u,1,0.75672,2,media/dknb.png,2,"[-1,1,-1]",5,0,Symb,u,RT,0,0,50,1,2,99,99,u,0.75672,1,4,50,0,50,0,1,,,,,,,
,,,,,,,,,,,,,,,,,,,,1,4,2021-01-11_00h44.10.845,CL_C2S3,2020.1.3,Win32,60,,,,,h,1,0.733165,0,media/dcnb.png,2,"[-1,1,-1]",3,0,Symb,h,RT,0,0,51,1,2,99,99,h,0.733165,1,4,51,0,51,0,1,,,,,,,
,,,,,,,,,,,,,,,,,,,,1,4,2021-01-11_00h44.10.845,CL_C2S3,2020.1.3,Win32,60,,,,,i,1,0.807265,1,media/dfnb.png,2,"[-1,1,-1]",4,1,Symb,i,RT,0,0,52,1,2,99,99,i,0.807265,1,4,52,0,52,0,1,,,,,,,
,,,,,,,,,,,,,,,,,,,,1,4,2021-01-11_00h44.10.845,CL_C2S3,2020.1.3,Win32,60,,,,,h,1,0.71868,1,media/dfnb.png,1,"[1,-1,-1]",1,1,Symb,h,RT,0,0,53,1,2,99,99,h,0.71868,1,4,53,0,53,0,1,,,,,,,
,,,,,,,,,,,,,,,,,,,,1,4,2021-01-11_00h44.10.845,CL_C2S3,2020.1.3,Win32,60,,,,,i,1,0.722015,2,media/dknb.png,1,"[1,-1,-1]",2,0,Symb,i,RT,0,0,54,1,2,99,99,i,0.722015,1,4,54,0,54,0,1,,,,,,,
,,,,,,,,,,,,,,,,,,,,1,4,2021-01-11_00h44.10.845,CL_C2S3,2020.1.3,Win32,60,,,,,h,1,1.184365,1,media/dfnb.png,1,"[1,-1,-1]",1,1,Symb,h,RT,0,0,55,1,2,99,99,h,1.184365,1,4,55,0,55,0,1,,,,,,,
,,,,,,,,,,,,,,,,,,,,1,4,2021-01-11_00h44.10.845,CL_C2S3,2020.1.3,Win32,60,,,,,u,1,0.559705,2,media/dknb.png,2,"[-1,1,-1]",5,0,Symb,u,RT,0,0,56,1,2,99,99,u,0.559705,1,4,56,0,56,0,1,,,,,,,
,,,,,,,,,,,,,,,,,,,,1,4,2021-01-11_00h44.10.845,CL_C2S3,2020.1.3,Win32,60,,,,,i,1,0.61183,1,media/dfnb.png,2,"[-1,1,-1]",4,1,Symb,i,RT,0,0,57,1,2,99,99,i,0.61183,1,4,57,0,57,0,1,,,,,,,
,,,,,,,,,,,,,,,,,,,,1,4,2021-01-11_00h44.10.845,CL_C2S3,2020.1.3,Win32,60,,,,,h,1,0.834475,0,media/dcnb.png,2,"[-1,1,-1]",3,0,Symb,h,RT,0,0,58,1,2,99,99,h,0.834475,1,4,58,0,58,0,1,,,,,,,
,,,,,,,,,,,,,,,,,,,,1,4,2021-01-11_00h44.10.845,CL_C2S3,2020.1.3,Win32,60,,,,,u,1,1.234175,0,media/dcnb.png,1,"[1,-1,-1]",0,0,Symb,u,RT,0,0,59,1,2,99,99,u,1.234175,1,4,59,0,59,0,1,,,,,,,
,,,,,,,,,,,,,,,,,,,,1,4,2021-01-11_00h44.10.845,CL_C2S3,2020.1.3,Win32,60,,,,,i,1,0.679585,2,media/dknb.png,1,"[1,-1,-1]",2,0,Symb,i,RT,0,0,60,1,2,99,99,i,0.679585,1,4,60,0,60,0,1,,,,,,,
,,,,,,,,,,,,,,,,,,,,1,4,2021-01-11_00h44.10.845,CL_C2S3,2020.1.3,Win32,60,,,,,i,1,0.401055,2,media/dknb.png,1,"[1,-1,-1]",2,0,Symb,i,RT,0,0,61,1,2,99,99,i,0.401055,1,4,61,0,61,0,1,,,,,,,
,,,,,,,,,,,,,,,,,,,,1,4,2021-01-11_00h44.10.845,CL_C2S3,2020.1.3,Win32,60,,,,,h,0,0.91612,0,media/dcnb.png,1,"[1,-1,-1]",0,0,Symb,u,RT,0,0,62,1,2,99,99,h,0.91612,0,4,62,0,62,0,1,,,,,,,
,,,,,,,,,,,,,,,,,,,,1,4,2021-01-11_00h44.10.845,CL_C2S3,2020.1.3,Win32,60,,,,,h,1,0.901125,0,media/dcnb.png,2,"[-1,1,-1]",3,0,Symb,h,RT,0,0,63,1,2,99,99,h,0.901125,1,4,63,0,63,0,1,,,,,,,
,,,,,,,,,,,,,,,,,,,,1,4,2021-01-11_00h44.10.845,CL_C2S3,2020.1.3,Win32,60,,,,,u,1,0.81704,2,media/dknb.png,2,"[-1,1,-1]",5,0,Symb,u,RT,0,0,64,1,2,99,99,u,0.81704,1,4,64,0,64,0,1,,,,,,,
,,,,,,,,,,,,,,,,,,,,1,4,2021-01-11_00h44.10.845,CL_C2S3,2020.1.3,Win32,60,,,,,u,1,0.41655,2,media/dknb.png,2,"[-1,1,-1]",5,0,Symb,u,RT,0,0,65,1,2,99,99,u,0.41655,1,4,65,0,65,0,1,,,,,,,
,,,,,,,,,,,,,,,,,,,,1,4,2021-01-11_00h44.10.845,CL_C2S3,2020.1.3,Win32,60,,,,,i,1,0.95123,1,media/dfnb.png,2,"[-1,1,-1]",4,1,Symb,i,RT,0,0,66,1,2,99,99,i,0.95123,1,4,66,0,66,0,1,,,,,,,
,,,,,,,,,,,,,,,,,,,,1,4,2021-01-11_00h44.10.845,CL_C2S3,2020.1.3,Win32,60,,,,,h,1,0.719455,1,media/dfnb.png,1,"[1,-1,-1]",1,1,Symb,h,RT,0,0,67,1,2,99,99,h,0.719455,1,4,67,0,67,0,1,,,,,,,
,,,,,,,,,,,,,,,,,,,,1,4,2021-01-11_00h44.10.845,CL_C2S3,2020.1.3,Win32,60,,,,,h,1,1.383475,0,media/dcnb.png,2,"[-1,1,-1]",3,0,Symb,h,RT,0,0,68,1,2,99,99,h,1.383475,1,4,68,0,68,0,1,,,,,,,
,,,,,,,,,,,,,,,,,,,,1,4,2021-01-11_00h44.10.845,CL_C2S3,2020.1.3,Win32,60,,,,,h,1,1.788025,1,media/dfnb.png,1,"[1,-1,-1]",1,1,Symb,h,RT,0,0,69,1,2,99,99,h,1.788025,1,4,69,0,69,0,1,,,,,,,
,,,,,,,,,,,,,,,,,,,,1,4,2021-01-11_00h44.10.845,CL_C2S3,2020.1.3,Win32,60,,,,,u,1,0.65535,0,media/dcnb.png,1,"[1,-1,-1]",0,0,Symb,u,RT,0,0,70,1,2,99,99,u,0.65535,1,4,70,0,70,0,1,,,,,,,
,,,,,,,,,,,,,,,,,,,,1,4,2021-01-11_00h44.10.845,CL_C2S3,2020.1.3,Win32,60,,,,,i,1,0.526115,1,media/dfnb.png,2,"[-1,1,-1]",4,1,Symb,i,RT,0,0,71,1,2,99,99,i,0.526115,1,4,71,0,71,0,1,,,,,,,
,,,,,,,,,,,,,,,,,,,,1,4,2021-01-11_00h44.10.845,CL_C2S3,2020.1.3,Win32,60,,,,,i,1,0.356625,1,media/dfnb.png,2,"[-1,1,-1]",4,1,Symb,i,RT,0,0,72,1,2,99,99,i,0.356625,1,4,72,0,72,0,1,,,,,,,
,,,,,,,,,,,,,,,,,,,,1,4,2021-01-11_00h44.10.845,CL_C2S3,2020.1.3,Win32,60,,,,,h,1,0.566505,1,media/dfnb.png,1,"[1,-1,-1]",1,1,Symb,h,RT,0,0,73,1,2,99,99,h,0.566505,1,4,73,0,73,0,1,,,,,,,
,,,,,,,,,,,,,,,,,,,,1,4,2021-01-11_00h44.10.845,CL_C2S3,2020.1.3,Win32,60,,,,,i,1,1.683225,2,media/dknb.png,1,"[1,-1,-1]",2,0,Symb,i,RT,0,0,74,1,2,99,99,i,1.683225,1,4,74,0,74,0,1,,,,,,,
,,,,,,,,,,,,,,,,,,,,1,4,2021-01-11_00h44.10.845,CL_C2S3,2020.1.3,Win32,60,,,,,h,1,0.788225,0,media/dcnb.png,2,"[-1,1,-1]",3,0,Symb,h,RT,0,0,75,1,2,99,99,h,0.788225,1,4,75,0,75,0,1,,,,,,,
,,,,,,,,,,,,,,,,,,,,1,4,2021-01-11_00h44.10.845,CL_C2S3,2020.1.3,Win32,60,,,,,h,1,0.985775,1,media/dfnb.png,1,"[1,-1,-1]",1,1,Symb,h,RT,0,0,76,1,2,99,99,h,0.985775,1,4,76,0,76,0,1,,,,,,,
,,,,,,,,,,,,,,,,,,,,1,4,2021-01-11_00h44.10.845,CL_C2S3,2020.1.3,Win32,60,,,,,h,1,0.81437,0,media/dcnb.png,2,"[-1,1,-1]",3,0,Symb,h,RT,0,0,77,1,2,99,99,h,0.81437,1,4,77,0,77,0,1,,,,,,,
,,,,,,,,,,,,,,,,,,,,1,4,2021-01-11_00h44.10.845,CL_C2S3,2020.1.3,Win32,60,,,,,u,1,0.535175,2,media/dknb.png,2,"[-1,1,-1]",5,0,Symb,u,RT,0,0,78,1,2,99,99,u,0.535175,1,4,78,0,78,0,1,,,,,,,
,,,,,,,,,,,,,,,,,,,,1,4,2021-01-11_00h44.10.845,CL_C2S3,2020.1.3,Win32,60,,,,,i,1,0.52809,2,media/dknb.png,1,"[1,-1,-1]",2,0,Symb,i,RT,0,0,79,1,2,99,99,i,0.52809,1,4,79,0,79,0,1,,,,,,,
,,,,,,,,,,,,,,,,,,,,1,4,2021-01-11_00h44.10.845,CL_C2S3,2020.1.3,Win32,60,,,,,u,1,0.83764,0,media/dcnb.png,1,"[1,-1,-1]",0,0,Symb,u,RT,0,0,80,1,2,99,99,u,0.83764,1,4,80,0,80,0,1,,,,,,,
,,,,,,,,,,,,,,,,,,,,1,4,2021-01-11_00h44.10.845,CL_C2S3,2020.1.3,Win32,60,,,,,i,1,0.523695,1,media/dfnb.png,2,"[-1,1,-1]",4,1,Symb,i,RT,0,0,81,1,2,99,99,i,0.523695,1,4,81,0,81,0,1,,,,,,,
,,,,,,,,,,,,,,,,,,,,1,4,2021-01-11_00h44.10.845,CL_C2S3,2020.1.3,Win32,60,,,,,u,1,0.64978,0,media/dcnb.png,1,"[1,-1,-1]",0,0,Symb,u,RT,0,0,82,1,2,99,99,u,0.64978,1,4,82,0,82,0,1,,,,,,,
,,,,,,,,,,,,,,,,,,,,1,4,2021-01-11_00h44.10.845,CL_C2S3,2020.1.3,Win32,60,,,,,u,1,0.619305,2,media/dknb.png,2,"[-1,1,-1]",5,0,Symb,u,RT,0,0,83,1,2,99,99,u,0.619305,1,4,83,0,83,0,1,,,,,,,
,,,,,,,,,,,,,,,,,,,,1,4,2021-01-11_00h44.10.845,CL_C2S3,2020.1.3,Win32,60,,,,,u,1,0.424905,2,media/dknb.png,2,"[-1,1,-1]",5,0,Symb,u,RT,0,0,84,1,2,99,99,u,0.424905,1,4,84,0,84,0,1,,,,,,,
,,,,,,,,,,,,,,,,,,,,1,4,2021-01-11_00h44.10.845,CL_C2S3,2020.1.3,Win32,60,,,,,h,0,0.57148,0,media/dcnb.png,1,"[1,-1,-1]",0,0,Symb,u,RT,0,0,85,1,2,99,99,h,0.57148,0,4,85,0,85,0,1,,,,,,,
,,,,,,,,,,,,,,,,,,,,1,4,2021-01-11_00h44.10.845,CL_C2S3,2020.1.3,Win32,60,,,,,u,0,0.681325,2,media/dknb.png,1,"[1,-1,-1]",2,0,Symb,i,RT,0,0,86,1,2,99,99,u,0.681325,0,4,86,0,86,0,1,,,,,,,
,,,,,,,,,,,,,,,,,,,,1,4,2021-01-11_00h44.10.845,CL_C2S3,2020.1.3,Win32,60,,,,,h,1,0.56828,0,media/dcnb.png,2,"[-1,1,-1]",3,0,Symb,h,RT,0,0,87,1,2,99,99,h,0.56828,1,4,87,0,87,0,1,,,,,,,
,,,,,,,,,,,,,,,,,,,,1,4,2021-01-11_00h44.10.845,CL_C2S3,2020.1.3,Win32,60,,,,,i,1,0.8036,1,media/dfnb.png,2,"[-1,1,-1]",4,1,Symb,i,RT,0,0,88,1,2,99,99,i,0.8036,1,4,88,0,88,0,1,,,,,,,
,,,,,,,,,,,,,,,,,,,,1,4,2021-01-11_00h44.10.845,CL_C2S3,2020.1.3,Win32,60,,,,,h,1,0.580705,1,media/dfnb.png,1,"[1,-1,-1]",1,1,Symb,h,RT,0,0,89,1,2,99,99,h,0.580705,1,4,89,0,89,0,1,,,,,,,
,,,,,,,,,,,,,,,,,,,,1,4,2021-01-11_00h44.10.845,CL_C2S3,2020.1.3,Win32,60,,,,,u,1,0.798265,0,media/dcnb.png,1,"[1,-1,-1]",0,0,Symb,u,RT,0,0,90,1,2,99,99,u,0.798265,1,4,90,0,90,0,1,,,,,,,
,,,,,,,,,,,,,,,,,,,,1,4,2021-01-11_00h44.10.845,CL_C2S3,2020.1.3,Win32,60,,,,,h,1,0.60419,0,media/dcnb.png,2,"[-1,1,-1]",3,0,Symb,h,RT,0,0,91,1,2,99,99,h,0.60419,1,4,91,0,91,0,1,,,,,,,
,,,,,,,,,,,,,,,,,,,,1,4,2021-01-11_00h44.10.845,CL_C2S3,2020.1.3,Win32,60,,,,,i,1,0.558185,1,media/dfnb.png,2,"[-1,1,-1]",4,1,Symb,i,RT,0,0,92,1,2,99,99,i,0.558185,1,4,92,0,92,0,1,,,,,,,
,,,,,,,,,,,,,,,,,,,,1,4,2021-01-11_00h44.10.845,CL_C2S3,2020.1.3,Win32,60,,,,,u,1,0.53974,2,media/dknb.png,2,"[-1,1,-1]",5,0,Symb,u,RT,0,0,93,1,2,99,99,u,0.53974,1,4,93,0,93,0,1,,,,,,,
,,,,,,,,,,,,,,,,,,,,1,4,2021-01-11_00h44.10.845,CL_C2S3,2020.1.3,Win32,60,,,,,u,1,0.38053,2,media/dknb.png,2,"[-1,1,-1]",5,0,Symb,u,RT,0,0,94,1,2,99,99,u,0.38053,1,4,94,0,94,0,1,,,,,,,
,,,,,,,,,,,,,,,,,,,,1,4,2021-01-11_00h44.10.845,CL_C2S3,2020.1.3,Win32,60,,,,,i,1,0.731715,1,media/dfnb.png,2,"[-1,1,-1]",4,1,Symb,i,RT,0,0,95,1,2,99,99,i,0.731715,1,4,95,0,95,0,1,,,,,,,
,,,,,,,,,,,,,,,,,,,,1,4,2021-01-11_00h44.10.845,CL_C2S3,2020.1.3,Win32,60,,,,,u,0,0.582025,2,media/dknb.png,1,"[1,-1,-1]",2,0,Symb,i,RT,0,0,96,1,2,99,99,u,0.582025,0,4,96,0,96,0,1,,,,,,,
,,,,,,,,,,,,,,,,,,,,1,4,2021-01-11_00h44.10.845,CL_C2S3,2020.1.3,Win32,60,,,,,h,1,0.614025,1,media/dfnb.png,1,"[1,-1,-1]",1,1,Symb,h,RT,0,0,97,1,2,99,99,h,0.614025,1,4,97,0,97,0,1,,,,,,,
,,,,,,,,,,,,,,,,,,,,1,4,2021-01-11_00h44.10.845,CL_C2S3,2020.1.3,Win32,60,,,,,i,1,0.881295,2,media/dknb.png,1,"[1,-1,-1]",2,0,Symb,i,RT,0,0,98,1,2,99,99,i,0.881295,1,4,98,0,98,0,1,,,,,,,
,,,,,,,,,,,,,,,,,,,,1,4,2021-01-11_00h44.10.845,CL_C2S3,2020.1.3,Win32,60,,,,,u,1,0.669775,0,media/dcnb.png,1,"[1,-1,-1]",0,0,Symb,u,RT,0,0,99,1,2,99,99,u,0.669775,1,4,99,0,99,0,1,,,,,,,
,,,,,,,,,,,,,,,,,,,,1,4,2021-01-11_00h44.10.845,CL_C2S3,2020.1.3,Win32,60,,,,,h,1,0.598565,0,media/dcnb.png,2,"[-1,1,-1]",3,0,Symb,h,RT,0,0,100,1,2,99,99,h,0.598565,1,4,100,0,100,0,1,,,,,,,
,,,,,,,,,,,,,,,,,,,,1,4,2021-01-11_00h44.10.845,CL_C2S3,2020.1.3,Win32,60,,,,,h,1,0.76081,1,media/dfnb.png,1,"[1,-1,-1]",1,1,Symb,h,RT,0,0,101,1,2,99,99,h,0.76081,1,4,101,0,101,0,1,,,,,,,
,,,,,,,,,,,,,,,,,,,,1,4,2021-01-11_00h44.10.845,CL_C2S3,2020.1.3,Win32,60,,,,,i,1,0.58114,1,media/dfnb.png,2,"[-1,1,-1]",4,1,Symb,i,RT,0,0,102,1,2,99,99,i,0.58114,1,4,102,0,102,0,1,,,,,,,
,,,,,,,,,,,,,,,,,,,,1,4,2021-01-11_00h44.10.845,CL_C2S3,2020.1.3,Win32,60,,,,,h,1,0.81983,0,media/dcnb.png,2,"[-1,1,-1]",3,0,Symb,h,RT,0,0,103,1,2,99,99,h,0.81983,1,4,103,0,103,0,1,,,,,,,
,,,,,,,,,,,,,,,,,,,,1,4,2021-01-11_00h44.10.845,CL_C2S3,2020.1.3,Win32,60,,,,,u,1,0.783135,2,media/dknb.png,2,"[-1,1,-1]",5,0,Symb,u,RT,0,0,104,1,2,99,99,u,0.783135,1,4,104,0,104,0,1,,,,,,,
,,,,,,,,,,,,,,,,,,,,1,4,2021-01-11_00h44.10.845,CL_C2S3,2020.1.3,Win32,60,,,,,h,1,0.54796,1,media/dfnb.png,1,"[1,-1,-1]",1,1,Symb,h,RT,0,0,105,1,2,99,99,h,0.54796,1,4,105,0,105,0,1,,,,,,,
,,,,,,,,,,,,,,,,,,,,1,4,2021-01-11_00h44.10.845,CL_C2S3,2020.1.3,Win32,60,,,,,u,1,0.866145,0,media/dcnb.png,1,"[1,-1,-1]",0,0,Symb,u,RT,0,0,106,1,2,99,99,u,0.866145,1,4,106,0,106,0,1,,,,,,,
,,,,,,,,,,,,,,,,,,,,1,4,2021-01-11_00h44.10.845,CL_C2S3,2020.1.3,Win32,60,,,,,i,0,0.71965,1,media/dfnb.png,1,"[1,-1,-1]",1,1,Symb,h,RT,0,0,107,1,2,99,99,i,0.71965,0,4,107,0,107,0,1,,,,,,,
,,,,,,,,,,,,,,,,,,,,1,4,2021-01-11_00h44.10.845,CL_C2S3,2020.1.3,Win32,60,,,,,u,1,0.51325,2,media/dknb.png,2,"[-1,1,-1]",5,0,Symb,u,RT,0,0,108,1,2,99,99,u,0.51325,1,4,108,0,108,0,1,,,,,,,
,,,,,,,,,,,,,,,,,,,,1,4,2021-01-11_00h44.10.845,CL_C2S3,2020.1.3,Win32,60,,,,,u,1,0.74811,0,media/dcnb.png,1,"[1,-1,-1]",0,0,Symb,u,RT,0,0,109,1,2,99,99,u,0.74811,1,4,109,0,109,0,1,,,,,,,
,,,,,,,,,,,,,,,,,,,,1,4,2021-01-11_00h44.10.845,CL_C2S3,2020.1.3,Win32,60,,,,,i,1,0.89037,2,media/dknb.png,1,"[1,-1,-1]",2,0,Symb,i,RT,0,0,110,1,2,99,99,i,0.89037,1,4,110,0,110,0,1,,,,,,,
,,,,,,,,,,,,,,,,,,,,1,4,2021-01-11_00h44.10.845,CL_C2S3,2020.1.3,Win32,60,,,,,h,1,0.754065,0,media/dcnb.png,2,"[-1,1,-1]",3,0,Symb,h,RT,0,0,111,1,2,99,99,h,0.754065,1,4,111,0,111,0,1,,,,,,,
,,,,,,,,,,,,,,,,,,,,1,4,2021-01-11_00h44.10.845,CL_C2S3,2020.1.3,Win32,60,,,,,i,1,0.714235,2,media/dknb.png,1,"[1,-1,-1]",2,0,Symb,i,RT,0,0,112,1,2,99,99,i,0.714235,1,4,112,0,112,0,1,,,,,,,
,,,,,,,,,,,,,,,,,,,,1,4,2021-01-11_00h44.10.845,CL_C2S3,2020.1.3,Win32,60,,,,,i,1,0.58188,1,media/dfnb.png,2,"[-1,1,-1]",4,1,Symb,i,RT,0,0,113,1,2,99,99,i,0.58188,1,4,113,0,113,0,1,,,,,,,
,,,,,,,,,,,,,,,,,,,,1,4,2021-01-11_00h44.10.845,CL_C2S3,2020.1.3,Win32,60,,,,,u,1,0.578175,2,media/dknb.png,2,"[-1,1,-1]",5,0,Symb,u,RT,0,0,114,1,2,99,99,u,0.578175,1,4,114,0,114,0,1,,,,,,,
,,,,,,,,,,,,,,,,,,,,1,4,2021-01-11_00h44.10.845,CL_C2S3,2020.1.3,Win32,60,,,,,h,1,0.887695,1,media/dfnb.png,1,"[1,-1,-1]",1,1,Symb,h,RT,0,0,115,1,2,99,99,h,0.887695,1,4,115,0,115,0,1,,,,,,,
,,,,,,,,,,,,,,,,,,,,1,4,2021-01-11_00h44.10.845,CL_C2S3,2020.1.3,Win32,60,,,,,i,1,0.58431,1,media/dfnb.png,2,"[-1,1,-1]",4,1,Symb,i,RT,0,0,116,1,2,99,99,i,0.58431,1,4,116,0,116,0,1,,,,,,,
,,,,,,,,,,,,,,,,,,,,1,4,2021-01-11_00h44.10.845,CL_C2S3,2020.1.3,Win32,60,,,,,i,1,0.739725,2,media/dknb.png,1,"[1,-1,-1]",2,0,Symb,i,RT,0,0,117,1,2,99,99,i,0.739725,1,4,117,0,117,0,1,,,,,,,
,,,,,,,,,,,,,,,,,,,,1,4,2021-01-11_00h44.10.845,CL_C2S3,2020.1.3,Win32,60,,,,,u,1,0.721695,0,media/dcnb.png,1,"[1,-1,-1]",0,0,Symb,u,RT,0,0,118,1,2,99,99,u,0.721695,1,4,118,0,118,0,1,,,,,,,
,,,,,,,,,,,,,,,,,,,,1,4,2021-01-11_00h44.10.845,CL_C2S3,2020.1.3,Win32,60,,,,,h,1,0.548035,0,media/dcnb.png,2,"[-1,1,-1]",3,0,Symb,h,RT,0,0,119,1,2,99,99,h,0.548035,1,4,119,0,119,0,1,,,,,,,
,,,,,,,,,,,,,,,,,,,,1,4,2021-01-11_00h44.10.845,CL_C2S3,2020.1.3,Win32,60,,,,,,,,,,,,,,,,,,,,,,,,,,,,,,,,,1,0,1,0,1,,
,,,,,,,,,,,,,,,,,,,,1,4,2021-01-11_00h44.10.845,CL_C2S3,2020.1.3,Win32,60,,,h,469.873525,u,1,0.978995,2,media/dknb.png,2,"[-1,1,-1]",5,0,Symb,u,RT,0,0,0,1,3,99,99,u,0.978995,1,4,0,0,0,0,1,,,,,,,
,,,,,,,,,,,,,,,,,,,,1,4,2021-01-11_00h44.10.845,CL_C2S3,2020.1.3,Win32,60,,,,,h,1,0.55543,1,media/dfnb.png,1,"[1,-1,-1]",1,1,Symb,h,RT,0,0,1,1,3,99,99,h,0.55543,1,4,1,0,1,0,1,,,,,,,
,,,,,,,,,,,,,,,,,,,,1,4,2021-01-11_00h44.10.845,CL_C2S3,2020.1.3,Win32,60,,,,,i,1,0.549085,2,media/dknb.png,1,"[1,-1,-1]",2,0,Symb,i,RT,0,0,2,1,3,99,99,i,0.549085,1,4,2,0,2,0,1,,,,,,,
,,,,,,,,,,,,,,,,,,,,1,4,2021-01-11_00h44.10.845,CL_C2S3,2020.1.3,Win32,60,,,,,i,1,0.47446,2,media/dknb.png,1,"[1,-1,-1]",2,0,Symb,i,RT,0,0,3,1,3,99,99,i,0.47446,1,4,3,0,3,0,1,,,,,,,
,,,,,,,,,,,,,,,,,,,,1,4,2021-01-11_00h44.10.845,CL_C2S3,2020.1.3,Win32,60,,,,,u,1,0.580615,0,media/dcnb.png,1,"[1,-1,-1]",0,0,Symb,u,RT,0,0,4,1,3,99,99,u,0.580615,1,4,4,0,4,0,1,,,,,,,
,,,,,,,,,,,,,,,,,,,,1,4,2021-01-11_00h44.10.845,CL_C2S3,2020.1.3,Win32,60,,,,,i,1,0.354875,1,media/dfnb.png,2,"[-1,1,-1]",4,1,Symb,i,RT,0,0,5,1,3,99,99,i,0.354875,1,4,5,0,5,0,1,,,,,,,
,,,,,,,,,,,,,,,,,,,,1,4,2021-01-11_00h44.10.845,CL_C2S3,2020.1.3,Win32,60,,,,,u,1,0.514435,2,media/dknb.png,2,"[-1,1,-1]",5,0,Symb,u,RT,0,0,6,1,3,99,99,u,0.514435,1,4,6,0,6,0,1,,,,,,,
,,,,,,,,,,,,,,,,,,,,1,4,2021-01-11_00h44.10.845,CL_C2S3,2020.1.3,Win32,60,,,,,h,1,0.532945,0,media/dcnb.png,2,"[-1,1,-1]",3,0,Symb,h,RT,0,0,7,1,3,99,99,h,0.532945,1,4,7,0,7,0,1,,,,,,,
,,,,,,,,,,,,,,,,,,,,1,4,2021-01-11_00h44.10.845,CL_C2S3,2020.1.3,Win32,60,,,,,h,1,0.39995,0,media/dcnb.png,2,"[-1,1,-1]",3,0,Symb,h,RT,0,0,8,1,3,99,99,h,0.39995,1,4,8,0,8,0,1,,,,,,,
,,,,,,,,,,,,,,,,,,,,1,4,2021-01-11_00h44.10.845,CL_C2S3,2020.1.3,Win32,60,,,,,h,0,0.647045,1,media/dfnb.png,2,"[-1,1,-1]",4,1,Symb,i,RT,0,0,9,1,3,99,99,h,0.647045,0,4,9,0,9,0,1,,,,,,,
,,,,,,,,,,,,,,,,,,,,1,4,2021-01-11_00h44.10.845,CL_C2S3,2020.1.3,Win32,60,,,,,u,1,0.63586,0,media/dcnb.png,1,"[1,-1,-1]",0,0,Symb,u,RT,0,0,10,1,3,99,99,u,0.63586,1,4,10,0,10,0,1,,,,,,,
,,,,,,,,,,,,,,,,,,,,1,4,2021-01-11_00h44.10.845,CL_C2S3,2020.1.3,Win32,60,,,,,h,1,0.68124,1,media/dfnb.png,1,"[1,-1,-1]",1,1,Symb,h,RT,0,0,11,1,3,99,99,h,0.68124,1,4,11,0,11,0,1,,,,,,,
,,,,,,,,,,,,,,,,,,,,1,4,2021-01-11_00h44.10.845,CL_C2S3,2020.1.3,Win32,60,,,,,u,1,0.59074,2,media/dknb.png,2,"[-1,1,-1]",5,0,Symb,u,RT,0,0,12,1,3,99,99,u,0.59074,1,4,12,0,12,0,1,,,,,,,
,,,,,,,,,,,,,,,,,,,,1,4,2021-01-11_00h44.10.845,CL_C2S3,2020.1.3,Win32,60,,,,,i,1,0.54863,2,media/dknb.png,1,"[1,-1,-1]",2,0,Symb,i,RT,0,0,13,1,3,99,99,i,0.54863,1,4,13,0,13,0,1,,,,,,,
,,,,,,,,,,,,,,,,,,,,1,4,2021-01-11_00h44.10.845,CL_C2S3,2020.1.3,Win32,60,,,,,h,1,0.51131,0,media/dcnb.png,2,"[-1,1,-1]",3,0,Symb,h,RT,0,0,14,1,3,99,99,h,0.51131,1,4,14,0,14,0,1,,,,,,,
,,,,,,,,,,,,,,,,,,,,1,4,2021-01-11_00h44.10.845,CL_C2S3,2020.1.3,Win32,60,,,,,i,1,1.022595,1,media/dfnb.png,2,"[-1,1,-1]",4,1,Symb,i,RT,0,0,15,1,3,99,99,i,1.022595,1,4,15,0,15,0,1,,,,,,,
,,,,,,,,,,,,,,,,,,,,1,4,2021-01-11_00h44.10.845,CL_C2S3,2020.1.3,Win32,60,,,,,u,1,0.514675,0,media/dcnb.png,1,"[1,-1,-1]",0,0,Symb,u,RT,0,0,16,1,3,99,99,u,0.514675,1,4,16,0,16,0,1,,,,,,,
,,,,,,,,,,,,,,,,,,,,1,4,2021-01-11_00h44.10.845,CL_C2S3,2020.1.3,Win32,60,,,,,i,1,0.684075,2,media/dknb.png,1,"[1,-1,-1]",2,0,Symb,i,RT,0,0,17,1,3,99,99,i,0.684075,1,4,17,0,17,0,1,,,,,,,
,,,,,,,,,,,,,,,,,,,,1,4,2021-01-11_00h44.10.845,CL_C2S3,2020.1.3,Win32,60,,,,,u,1,0.55667,2,media/dknb.png,2,"[-1,1,-1]",5,0,Symb,u,RT,0,0,18,1,3,99,99,u,0.55667,1,4,18,0,18,0,1,,,,,,,
,,,,,,,,,,,,,,,,,,,,1,4,2021-01-11_00h44.10.845,CL_C2S3,2020.1.3,Win32,60,,,,,h,0,0.552375,0,media/dcnb.png,1,"[1,-1,-1]",0,0,Symb,u,RT,0,0,19,1,3,99,99,h,0.552375,0,4,19,0,19,0,1,,,,,,,
,,,,,,,,,,,,,,,,,,,,1,4,2021-01-11_00h44.10.845,CL_C2S3,2020.1.3,Win32,60,,,,,i,1,0.861345,1,media/dfnb.png,2,"[-1,1,-1]",4,1,Symb,i,RT,0,0,20,1,3,99,99,i,0.861345,1,4,20,0,20,0,1,,,,,,,
,,,,,,,,,,,,,,,,,,,,1,4,2021-01-11_00h44.10.845,CL_C2S3,2020.1.3,Win32,60,,,,,h,1,0.514765,1,media/dfnb.png,1,"[1,-1,-1]",1,1,Symb,h,RT,0,0,21,1,3,99,99,h,0.514765,1,4,21,0,21,0,1,,,,,,,
,,,,,,,,,,,,,,,,,,,,1,4,2021-01-11_00h44.10.845,CL_C2S3,2020.1.3,Win32,60,,,,,h,1,0.912605,0,media/dcnb.png,2,"[-1,1,-1]",3,0,Symb,h,RT,0,0,22,1,3,99,99,h,0.912605,1,4,22,0,22,0,1,,,,,,,
,,,,,,,,,,,,,,,,,,,,1,4,2021-01-11_00h44.10.845,CL_C2S3,2020.1.3,Win32,60,,,,,i,0,0.573745,1,media/dfnb.png,1,"[1,-1,-1]",1,1,Symb,h,RT,0,0,23,1,3,99,99,i,0.573745,0,4,23,0,23,0,1,,,,,,,
,,,,,,,,,,,,,,,,,,,,1,4,2021-01-11_00h44.10.845,CL_C2S3,2020.1.3,Win32,60,,,,,u,0,0.574585,2,media/dknb.png,1,"[1,-1,-1]",2,0,Symb,i,RT,0,0,24,1,3,99,99,u,0.574585,0,4,24,0,24,0,1,,,,,,,
,,,,,,,,,,,,,,,,,,,,1,4,2021-01-11_00h44.10.845,CL_C2S3,2020.1.3,Win32,60,,,,,h,1,0.74865,1,media/dfnb.png,1,"[1,-1,-1]",1,1,Symb,h,RT,0,0,25,1,3,99,99,h,0.74865,1,4,25,0,25,0,1,,,,,,,
,,,,,,,,,,,,,,,,,,,,1,4,2021-01-11_00h44.10.845,CL_C2S3,2020.1.3,Win32,60,,,,,u,1,0.58508,2,media/dknb.png,2,"[-1,1,-1]",5,0,Symb,u,RT,0,0,26,1,3,99,99,u,0.58508,1,4,26,0,26,0,1,,,,,,,
,,,,,,,,,,,,,,,,,,,,1,4,2021-01-11_00h44.10.845,CL_C2S3,2020.1.3,Win32,60,,,,,h,0,0.552155,0,media/dcnb.png,1,"[1,-1,-1]",0,0,Symb,u,RT,0,0,27,1,3,99,99,h,0.552155,0,4,27,0,27,0,1,,,,,,,
,,,,,,,,,,,,,,,,,,,,1,4,2021-01-11_00h44.10.845,CL_C2S3,2020.1.3,Win32,60,,,,,i,1,0.63079,1,media/dfnb.png,2,"[-1,1,-1]",4,1,Symb,i,RT,0,0,28,1,3,99,99,i,0.63079,1,4,28,0,28,0,1,,,,,,,
,,,,,,,,,,,,,,,,,,,,1,4,2021-01-11_00h44.10.845,CL_C2S3,2020.1.3,Win32,60,,,,,h,1,0.59555,0,media/dcnb.png,2,"[-1,1,-1]",3,0,Symb,h,RT,0,0,29,1,3,99,99,h,0.59555,1,4,29,0,29,0,1,,,,,,,
,,,,,,,,,,,,,,,,,,,,1,4,2021-01-11_00h44.10.845,CL_C2S3,2020.1.3,Win32,60,,,,,h,1,0.414325,0,media/dcnb.png,2,"[-1,1,-1]",3,0,Symb,h,RT,0,0,30,1,3,99,99,h,0.414325,1,4,30,0,30,0,1,,,,,,,
,,,,,,,,,,,,,,,,,,,,1,4,2021-01-11_00h44.10.845,CL_C2S3,2020.1.3,Win32,60,,,,,u,1,0.718535,2,media/dknb.png,2,"[-1,1,-1]",5,0,Symb,u,RT,0,0,31,1,3,99,99,u,0.718535,1,4,31,0,31,0,1,,,,,,,
,,,,,,,,,,,,,,,,,,,,1,4,2021-01-11_00h44.10.845,CL_C2S3,2020.1.3,Win32,60,,,,,i,1,0.50552,2,media/dknb.png,1,"[1,-1,-1]",2,0,Symb,i,RT,0,0,32,1,3,99,99,i,0.50552,1,4,32,0,32,0,1,,,,,,,
,,,,,,,,,,,,,,,,,,,,1,4,2021-01-11_00h44.10.845,CL_C2S3,2020.1.3,Win32,60,,,,,h,0,0.52921,0,media/dcnb.png,1,"[1,-1,-1]",0,0,Symb,u,RT,0,0,33,1,3,99,99,h,0.52921,0,4,33,0,33,0,1,,,,,,,
,,,,,,,,,,,,,,,,,,,,1,4,2021-01-11_00h44.10.845,CL_C2S3,2020.1.3,Win32,60,,,,,h,1,0.727485,1,media/dfnb.png,1,"[1,-1,-1]",1,1,Symb,h,RT,0,0,34,1,3,99,99,h,0.727485,1,4,34,0,34,0,1,,,,,,,
,,,,,,,,,,,,,,,,,,,,1,4,2021-01-11_00h44.10.845,CL_C2S3,2020.1.3,Win32,60,,,,,u,1,0.515925,2,media/dknb.png,2,"[-1,1,-1]",5,0,Symb,u,RT,0,0,35,1,3,99,99,u,0.515925,1,4,35,0,35,0,1,,,,,,,
,,,,,,,,,,,,,,,,,,,,1,4,2021-01-11_00h44.10.845,CL_C2S3,2020.1.3,Win32,60,,,,,h,1,0.586775,1,media/dfnb.png,1,"[1,-1,-1]",1,1,Symb,h,RT,0,0,36,1,3,99,99,h,0.586775,1,4,36,0,36,0,1,,,,,,,
,,,,,,,,,,,,,,,,,,,,1,4,2021-01-11_00h44.10.845,CL_C2S3,2020.1.3,Win32,60,,,,,h,1,0.90966,0,media/dcnb.png,2,"[-1,1,-1]",3,0,Symb,h,RT,0,0,37,1,3,99,99,h,0.90966,1,4,37,0,37,0,1,,,,,,,
,,,,,,,,,,,,,,,,,,,,1,4,2021-01-11_00h44.10.845,CL_C2S3,2020.1.3,Win32,60,,,,,i,1,0.608155,2,media/dknb.png,1,"[1,-1,-1]",2,0,Symb,i,RT,0,0,38,1,3,99,99,i,0.608155,1,4,38,0,38,0,1,,,,,,,
,,,,,,,,,,,,,,,,,,,,1,4,2021-01-11_00h44.10.845,CL_C2S3,2020.1.3,Win32,60,,,,,u,1,1.297655,0,media/dcnb.png,1,"[1,-1,-1]",0,0,Symb,u,RT,0,0,39,1,3,99,99,u,1.297655,1,4,39,0,39,0,1,,,,,,,
,,,,,,,,,,,,,,,,,,,,1,4,2021-01-11_00h44.10.845,CL_C2S3,2020.1.3,Win32,60,,,,,i,1,0.792915,1,media/dfnb.png,2,"[-1,1,-1]",4,1,Symb,i,RT,0,0,40,1,3,99,99,i,0.792915,1,4,40,0,40,0,1,,,,,,,
,,,,,,,,,,,,,,,,,,,,1,4,2021-01-11_00h44.10.845,CL_C2S3,2020.1.3,Win32,60,,,,,h,0,0.9368,1,media/dfnb.png,2,"[-1,1,-1]",4,1,Symb,i,RT,0,0,41,1,3,99,99,h,0.9368,0,4,41,0,41,0,1,,,,,,,
,,,,,,,,,,,,,,,,,,,,1,4,2021-01-11_00h44.10.845,CL_C2S3,2020.1.3,Win32,60,,,,,i,1,0.66892,2,media/dknb.png,1,"[1,-1,-1]",2,0,Symb,i,RT,0,0,42,1,3,99,99,i,0.66892,1,4,42,0,42,0,1,,,,,,,
,,,,,,,,,,,,,,,,,,,,1,4,2021-01-11_00h44.10.845,CL_C2S3,2020.1.3,Win32,60,,,,,u,1,0.81395,0,media/dcnb.png,1,"[1,-1,-1]",0,0,Symb,u,RT,0,0,43,1,3,99,99,u,0.81395,1,4,43,0,43,0,1,,,,,,,
,,,,,,,,,,,,,,,,,,,,1,4,2021-01-11_00h44.10.845,CL_C2S3,2020.1.3,Win32,60,,,,,i,1,0.75024,2,media/dknb.png,1,"[1,-1,-1]",2,0,Symb,i,RT,0,0,44,1,3,99,99,i,0.75024,1,4,44,0,44,0,1,,,,,,,
,,,,,,,,,,,,,,,,,,,,1,4,2021-01-11_00h44.10.845,CL_C2S3,2020.1.3,Win32,60,,,,,u,1,0.635875,2,media/dknb.png,2,"[-1,1,-1]",5,0,Symb,u,RT,0,0,45,1,3,99,99,u,0.635875,1,4,45,0,45,0,1,,,,,,,
,,,,,,,,,,,,,,,,,,,,1,4,2021-01-11_00h44.10.845,CL_C2S3,2020.1.3,Win32,60,,,,,h,1,2.48356,0,media/dcnb.png,2,"[-1,1,-1]",3,0,Symb,h,RT,0,0,46,1,3,99,99,h,2.48356,1,4,46,0,46,0,1,,,,,,,
,,,,,,,,,,,,,,,,,,,,1,4,2021-01-11_00h44.10.845,CL_C2S3,2020.1.3,Win32,60,,,,,h,1,0.613945,1,media/dfnb.png,1,"[1,-1,-1]",1,1,Symb,h,RT,0,0,47,1,3,99,99,h,0.613945,1,4,47,0,47,0,1,,,,,,,
,,,,,,,,,,,,,,,,,,,,1,4,2021-01-11_00h44.10.845,CL_C2S3,2020.1.3,Win32,60,,,,,i,1,0.63438,1,media/dfnb.png,2,"[-1,1,-1]",4,1,Symb,i,RT,0,0,48,1,3,99,99,i,0.63438,1,4,48,0,48,0,1,,,,,,,
,,,,,,,,,,,,,,,,,,,,1,4,2021-01-11_00h44.10.845,CL_C2S3,2020.1.3,Win32,60,,,,,u,1,0.768095,0,media/dcnb.png,1,"[1,-1,-1]",0,0,Symb,u,RT,0,0,49,1,3,99,99,u,0.768095,1,4,49,0,49,0,1,,,,,,,
,,,,,,,,,,,,,,,,,,,,1,4,2021-01-11_00h44.10.845,CL_C2S3,2020.1.3,Win32,60,,,,,h,1,0.491515,0,media/dcnb.png,2,"[-1,1,-1]",3,0,Symb,h,RT,0,0,50,1,3,99,99,h,0.491515,1,4,50,0,50,0,1,,,,,,,
,,,,,,,,,,,,,,,,,,,,1,4,2021-01-11_00h44.10.845,CL_C2S3,2020.1.3,Win32,60,,,,,i,1,0.63238,1,media/dfnb.png,2,"[-1,1,-1]",4,1,Symb,i,RT,0,0,51,1,3,99,99,i,0.63238,1,4,51,0,51,0,1,,,,,,,
,,,,,,,,,,,,,,,,,,,,1,4,2021-01-11_00h44.10.845,CL_C2S3,2020.1.3,Win32,60,,,,,u,1,0.53072,2,media/dknb.png,2,"[-1,1,-1]",5,0,Symb,u,RT,0,0,52,1,3,99,99,u,0.53072,1,4,52,0,52,0,1,,,,,,,
,,,,,,,,,,,,,,,,,,,,1,4,2021-01-11_00h44.10.845,CL_C2S3,2020.1.3,Win32,60,,,,,h,1,0.55215,1,media/dfnb.png,1,"[1,-1,-1]",1,1,Symb,h,RT,0,0,53,1,3,99,99,h,0.55215,1,4,53,0,53,0,1,,,,,,,
,,,,,,,,,,,,,,,,,,,,1,4,2021-01-11_00h44.10.845,CL_C2S3,2020.1.3,Win32,60,,,,,h,0,0.893475,2,media/dknb.png,2,"[-1,1,-1]",5,0,Symb,u,RT,0,0,54,1,3,99,99,h,0.893475,0,4,54,0,54,0,1,,,,,,,
,,,,,,,,,,,,,,,,,,,,1,4,2021-01-11_00h44.10.845,CL_C2S3,2020.1.3,Win32,60,,,,,u,1,0.768855,0,media/dcnb.png,1,"[1,-1,-1]",0,0,Symb,u,RT,0,0,55,1,3,99,99,u,0.768855,1,4,55,0,55,0,1,,,,,,,
,,,,,,,,,,,,,,,,,,,,1,4,2021-01-11_00h44.10.845,CL_C2S3,2020.1.3,Win32,60,,,,,h,1,0.89773,1,media/dfnb.png,1,"[1,-1,-1]",1,1,Symb,h,RT,0,0,56,1,3,99,99,h,0.89773,1,4,56,0,56,0,1,,,,,,,
,,,,,,,,,,,,,,,,,,,,1,4,2021-01-11_00h44.10.845,CL_C2S3,2020.1.3,Win32,60,,,,,u,0,0.649595,2,media/dknb.png,1,"[1,-1,-1]",2,0,Symb,i,RT,0,0,57,1,3,99,99,u,0.649595,0,4,57,0,57,0,1,,,,,,,
,,,,,,,,,,,,,,,,,,,,1,4,2021-01-11_00h44.10.845,CL_C2S3,2020.1.3,Win32,60,,,,,i,1,0.88026,1,media/dfnb.png,2,"[-1,1,-1]",4,1,Symb,i,RT,0,0,58,1,3,99,99,i,0.88026,1,4,58,0,58,0,1,,,,,,,
,,,,,,,,,,,,,,,,,,,,1,4,2021-01-11_00h44.10.845,CL_C2S3,2020.1.3,Win32,60,,,,,h,1,1.01228,0,media/dcnb.png,2,"[-1,1,-1]",3,0,Symb,h,RT,0,0,59,1,3,99,99,h,1.01228,1,4,59,0,59,0,1,,,,,,,
,,,,,,,,,,,,,,,,,,,,1,4,2021-01-11_00h44.10.845,CL_C2S3,2020.1.3,Win32,60,,,,,u,1,0.62749,0,media/dcnb.png,1,"[1,-1,-1]",0,0,Symb,u,RT,0,0,60,1,3,99,99,u,0.62749,1,4,60,0,60,0,1,,,,,,,
,,,,,,,,,,,,,,,,,,,,1,4,2021-01-11_00h44.10.845,CL_C2S3,2020.1.3,Win32,60,,,,,u,1,0.64717,2,media/dknb.png,2,"[-1,1,-1]",5,0,Symb,u,RT,0,0,61,1,3,99,99,u,0.64717,1,4,61,0,61,0,1,,,,,,,
,,,,,,,,,,,,,,,,,,,,1,4,2021-01-11_00h44.10.845,CL_C2S3,2020.1.3,Win32,60,,,,,h,0,2.455945,0,media/dcnb.png,1,"[1,-1,-1]",0,0,Symb,u,RT,0,0,62,1,3,99,99,h,2.455945,0,4,62,0,62,0,1,,,,,,,
,,,,,,,,,,,,,,,,,,,,1,4,2021-01-11_00h44.10.845,CL_C2S3,2020.1.3,Win32,60,,,,,i,1,0.80667,2,media/dknb.png,1,"[1,-1,-1]",2,0,Symb,i,RT,0,0,63,1,3,99,99,i,0.80667,1,4,63,0,63,0,1,,,,,,,
,,,,,,,,,,,,,,,,,,,,1,4,2021-01-11_00h44.10.845,CL_C2S3,2020.1.3,Win32,60,,,,,h,1,0.832655,0,media/dcnb.png,2,"[-1,1,-1]",3,0,Symb,h,RT,0,0,64,1,3,99,99,h,0.832655,1,4,64,0,64,0,1,,,,,,,
,,,,,,,,,,,,,,,,,,,,1,4,2021-01-11_00h44.10.845,CL_C2S3,2020.1.3,Win32,60,,,,,h,1,0.729355,1,media/dfnb.png,1,"[1,-1,-1]",1,1,Symb,h,RT,0,0,65,1,3,99,99,h,0.729355,1,4,65,0,65,0,1,,,,,,,
,,,,,,,,,,,,,,,,,,,,1,4,2021-01-11_00h44.10.845,CL_C2S3,2020.1.3,Win32,60,,,,,i,1,0.60584,1,media/dfnb.png,2,"[-1,1,-1]",4,1,Symb,i,RT,0,0,66,1,3,99,99,i,0.60584,1,4,66,0,66,0,1,,,,,,,
,,,,,,,,,,,,,,,,,,,,1,4,2021-01-11_00h44.10.845,CL_C2S3,2020.1.3,Win32,60,,,,,u,1,0.62952,2,media/dknb.png,2,"[-1,1,-1]",5,0,Symb,u,RT,0,0,67,1,3,99,99,u,0.62952,1,4,67,0,67,0,1,,,,,,,
,,,,,,,,,,,,,,,,,,,,1,4,2021-01-11_00h44.10.845,CL_C2S3,2020.1.3,Win32,60,,,,,i,1,0.88161,1,media/dfnb.png,2,"[-1,1,-1]",4,1,Symb,i,RT,0,0,68,1,3,99,99,i,0.88161,1,4,68,0,68,0,1,,,,,,,
,,,,,,,,,,,,,,,,,,,,1,4,2021-01-11_00h44.10.845,CL_C2S3,2020.1.3,Win32,60,,,,,i,1,0.760585,2,media/dknb.png,1,"[1,-1,-1]",2,0,Symb,i,RT,0,0,69,1,3,99,99,i,0.760585,1,4,69,0,69,0,1,,,,,,,
,,,,,,,,,,,,,,,,,,,,1,4,2021-01-11_00h44.10.845,CL_C2S3,2020.1.3,Win32,60,,,,,h,1,0.912905,1,media/dfnb.png,1,"[1,-1,-1]",1,1,Symb,h,RT,0,0,70,1,3,99,99,h,0.912905,1,4,70,0,70,0,1,,,,,,,
,,,,,,,,,,,,,,,,,,,,1,4,2021-01-11_00h44.10.845,CL_C2S3,2020.1.3,Win32,60,,,,,h,1,0.8732,0,media/dcnb.png,2,"[-1,1,-1]",3,0,Symb,h,RT,0,0,71,1,3,99,99,h,0.8732,1,4,71,0,71,0,1,,,,,,,
,,,,,,,,,,,,,,,,,,,,1,4,2021-01-11_00h44.10.845,CL_C2S3,2020.1.3,Win32,60,,,,,u,1,0.370985,0,media/dcnb.png,1,"[1,-1,-1]",0,0,Symb,u,RT,0,0,72,1,3,99,99,u,0.370985,1,4,72,0,72,0,1,,,,,,,
,,,,,,,,,,,,,,,,,,,,1,4,2021-01-11_00h44.10.845,CL_C2S3,2020.1.3,Win32,60,,,,,i,1,0.623535,1,media/dfnb.png,2,"[-1,1,-1]",4,1,Symb,i,RT,0,0,73,1,3,99,99,i,0.623535,1,4,73,0,73,0,1,,,,,,,
,,,,,,,,,,,,,,,,,,,,1,4,2021-01-11_00h44.10.845,CL_C2S3,2020.1.3,Win32,60,,,,,i,1,0.37925,2,media/dknb.png,1,"[1,-1,-1]",2,0,Symb,i,RT,0,0,74,1,3,99,99,i,0.37925,1,4,74,0,74,0,1,,,,,,,
,,,,,,,,,,,,,,,,,,,,1,4,2021-01-11_00h44.10.845,CL_C2S3,2020.1.3,Win32,60,,,,,i,1,0.40011,2,media/dknb.png,1,"[1,-1,-1]",2,0,Symb,i,RT,0,0,75,1,3,99,99,i,0.40011,1,4,75,0,75,0,1,,,,,,,
,,,,,,,,,,,,,,,,,,,,1,4,2021-01-11_00h44.10.845,CL_C2S3,2020.1.3,Win32,60,,,,,u,1,0.753345,2,media/dknb.png,2,"[-1,1,-1]",5,0,Symb,u,RT,0,0,76,1,3,99,99,u,0.753345,1,4,76,0,76,0,1,,,,,,,
,,,,,,,,,,,,,,,,,,,,1,4,2021-01-11_00h44.10.845,CL_C2S3,2020.1.3,Win32,60,,,,,u,1,0.824055,0,media/dcnb.png,1,"[1,-1,-1]",0,0,Symb,u,RT,0,0,77,1,3,99,99,u,0.824055,1,4,77,0,77,0,1,,,,,,,
,,,,,,,,,,,,,,,,,,,,1,4,2021-01-11_00h44.10.845,CL_C2S3,2020.1.3,Win32,60,,,,,h,1,1.01507,0,media/dcnb.png,2,"[-1,1,-1]",3,0,Symb,h,RT,0,0,78,1,3,99,99,h,1.01507,1,4,78,0,78,0,1,,,,,,,
,,,,,,,,,,,,,,,,,,,,1,4,2021-01-11_00h44.10.845,CL_C2S3,2020.1.3,Win32,60,,,,,i,1,0.781875,1,media/dfnb.png,2,"[-1,1,-1]",4,1,Symb,i,RT,0,0,79,1,3,99,99,i,0.781875,1,4,79,0,79,0,1,,,,,,,
,,,,,,,,,,,,,,,,,,,,1,4,2021-01-11_00h44.10.845,CL_C2S3,2020.1.3,Win32,60,,,,,h,1,0.620765,1,media/dfnb.png,1,"[1,-1,-1]",1,1,Symb,h,RT,0,0,80,1,3,99,99,h,0.620765,1,4,80,0,80,0,1,,,,,,,
,,,,,,,,,,,,,,,,,,,,1,4,2021-01-11_00h44.10.845,CL_C2S3,2020.1.3,Win32,60,,,,,h,1,0.75174,0,media/dcnb.png,2,"[-1,1,-1]",3,0,Symb,h,RT,0,0,81,1,3,99,99,h,0.75174,1,4,81,0,81,0,1,,,,,,,
,,,,,,,,,,,,,,,,,,,,1,4,2021-01-11_00h44.10.845,CL_C2S3,2020.1.3,Win32,60,,,,,i,0,0.715755,1,media/dfnb.png,1,"[1,-1,-1]",1,1,Symb,h,RT,0,0,82,1,3,99,99,i,0.715755,0,4,82,0,82,0,1,,,,,,,
,,,,,,,,,,,,,,,,,,,,1,4,2021-01-11_00h44.10.845,CL_C2S3,2020.1.3,Win32,60,,,,,u,1,1.216695,2,media/dknb.png,2,"[-1,1,-1]",5,0,Symb,u,RT,0,0,83,1,3,99,99,u,1.216695,1,4,83,0,83,0,1,,,,,,,
,,,,,,,,,,,,,,,,,,,,1,4,2021-01-11_00h44.10.845,CL_C2S3,2020.1.3,Win32,60,,,,,i,1,0.908295,1,media/dfnb.png,2,"[-1,1,-1]",4,1,Symb,i,RT,0,0,84,1,3,99,99,i,0.908295,1,4,84,0,84,0,1,,,,,,,
,,,,,,,,,,,,,,,,,,,,1,4,2021-01-11_00h44.10.845,CL_C2S3,2020.1.3,Win32,60,,,,,u,1,0.53613,2,media/dknb.png,2,"[-1,1,-1]",5,0,Symb,u,RT,0,0,85,1,3,99,99,u,0.53613,1,4,85,0,85,0,1,,,,,,,
,,,,,,,,,,,,,,,,,,,,1,4,2021-01-11_00h44.10.845,CL_C2S3,2020.1.3,Win32,60,,,,,h,0,0.70427,2,media/dknb.png,1,"[1,-1,-1]",2,0,Symb,i,RT,0,0,86,1,3,99,99,h,0.70427,0,4,86,0,86,0,1,,,,,,,
,,,,,,,,,,,,,,,,,,,,1,4,2021-01-11_00h44.10.845,CL_C2S3,2020.1.3,Win32,60,,,,,u,1,1.03352,0,media/dcnb.png,1,"[1,-1,-1]",0,0,Symb,u,RT,0,0,87,1,3,99,99,u,1.03352,1,4,87,0,87,0,1,,,,,,,
,,,,,,,,,,,,,,,,,,,,1,4,2021-01-11_00h44.10.845,CL_C2S3,2020.1.3,Win32,60,,,,,h,1,0.817755,0,media/dcnb.png,2,"[-1,1,-1]",3,0,Symb,h,RT,0,0,88,1,3,99,99,h,0.817755,1,4,88,0,88,0,1,,,,,,,
,,,,,,,,,,,,,,,,,,,,1,4,2021-01-11_00h44.10.845,CL_C2S3,2020.1.3,Win32,60,,,,,h,1,5.15115,1,media/dfnb.png,1,"[1,-1,-1]",1,1,Symb,h,RT,0,0,89,1,3,99,99,h,5.15115,1,4,89,0,89,0,1,,,,,,,
,,,,,,,,,,,,,,,,,,,,1,4,2021-01-11_00h44.10.845,CL_C2S3,2020.1.3,Win32,60,,,,,h,1,1.01558,0,media/dcnb.png,2,"[-1,1,-1]",3,0,Symb,h,RT,0,0,90,1,3,99,99,h,1.01558,1,4,90,0,90,0,1,,,,,,,
,,,,,,,,,,,,,,,,,,,,1,4,2021-01-11_00h44.10.845,CL_C2S3,2020.1.3,Win32,60,,,,,u,1,0.66454,2,media/dknb.png,2,"[-1,1,-1]",5,0,Symb,u,RT,0,0,91,1,3,99,99,u,0.66454,1,4,91,0,91,0,1,,,,,,,
,,,,,,,,,,,,,,,,,,,,1,4,2021-01-11_00h44.10.845,CL_C2S3,2020.1.3,Win32,60,,,,,u,1,1.81202,0,media/dcnb.png,1,"[1,-1,-1]",0,0,Symb,u,RT,0,0,92,1,3,99,99,u,1.81202,1,4,92,0,92,0,1,,,,,,,
,,,,,,,,,,,,,,,,,,,,1,4,2021-01-11_00h44.10.845,CL_C2S3,2020.1.3,Win32,60,,,,,h,1,2.000955,0,media/dcnb.png,2,"[-1,1,-1]",3,0,Symb,h,RT,0,0,93,1,3,99,99,h,2.000955,1,4,93,0,93,0,1,,,,,,,
,,,,,,,,,,,,,,,,,,,,1,4,2021-01-11_00h44.10.845,CL_C2S3,2020.1.3,Win32,60,,,,,u,1,0.77086,0,media/dcnb.png,1,"[1,-1,-1]",0,0,Symb,u,RT,0,0,94,1,3,99,99,u,0.77086,1,4,94,0,94,0,1,,,,,,,
,,,,,,,,,,,,,,,,,,,,1,4,2021-01-11_00h44.10.845,CL_C2S3,2020.1.3,Win32,60,,,,,i,1,0.73791,2,media/dknb.png,1,"[1,-1,-1]",2,0,Symb,i,RT,0,0,95,1,3,99,99,i,0.73791,1,4,95,0,95,0,1,,,,,,,
,,,,,,,,,,,,,,,,,,,,1,4,2021-01-11_00h44.10.845,CL_C2S3,2020.1.3,Win32,60,,,,,h,0,0.789155,1,media/dfnb.png,2,"[-1,1,-1]",4,1,Symb,i,RT,0,0,96,1,3,99,99,h,0.789155,0,4,96,0,96,0,1,,,,,,,
,,,,,,,,,,,,,,,,,,,,1,4,2021-01-11_00h44.10.845,CL_C2S3,2020.1.3,Win32,60,,,,,h,1,0.67039,1,media/dfnb.png,1,"[1,-1,-1]",1,1,Symb,h,RT,0,0,97,1,3,99,99,h,0.67039,1,4,97,0,97,0,1,,,,,,,
,,,,,,,,,,,,,,,,,,,,1,4,2021-01-11_00h44.10.845,CL_C2S3,2020.1.3,Win32,60,,,,,h,1,0.41708,1,media/dfnb.png,1,"[1,-1,-1]",1,1,Symb,h,RT,0,0,98,1,3,99,99,h,0.41708,1,4,98,0,98,0,1,,,,,,,
,,,,,,,,,,,,,,,,,,,,1,4,2021-01-11_00h44.10.845,CL_C2S3,2020.1.3,Win32,60,,,,,i,1,0.781745,2,media/dknb.png,1,"[1,-1,-1]",2,0,Symb,i,RT,0,0,99,1,3,99,99,i,0.781745,1,4,99,0,99,0,1,,,,,,,
,,,,,,,,,,,,,,,,,,,,1,4,2021-01-11_00h44.10.845,CL_C2S3,2020.1.3,Win32,60,,,,,u,1,0.517565,2,media/dknb.png,2,"[-1,1,-1]",5,0,Symb,u,RT,0,0,100,1,3,99,99,u,0.517565,1,4,100,0,100,0,1,,,,,,,
,,,,,,,,,,,,,,,,,,,,1,4,2021-01-11_00h44.10.845,CL_C2S3,2020.1.3,Win32,60,,,,,i,1,0.971775,1,media/dfnb.png,2,"[-1,1,-1]",4,1,Symb,i,RT,0,0,101,1,3,99,99,i,0.971775,1,4,101,0,101,0,1,,,,,,,
,,,,,,,,,,,,,,,,,,,,1,4,2021-01-11_00h44.10.845,CL_C2S3,2020.1.3,Win32,60,,,,,i,1,1.13012,2,media/dknb.png,1,"[1,-1,-1]",2,0,Symb,i,RT,0,0,102,1,3,99,99,i,1.13012,1,4,102,0,102,0,1,,,,,,,
,,,,,,,,,,,,,,,,,,,,1,4,2021-01-11_00h44.10.845,CL_C2S3,2020.1.3,Win32,60,,,,,i,1,1.11281,1,media/dfnb.png,2,"[-1,1,-1]",4,1,Symb,i,RT,0,0,103,1,3,99,99,i,1.11281,1,4,103,0,103,0,1,,,,,,,
,,,,,,,,,,,,,,,,,,,,1,4,2021-01-11_00h44.10.845,CL_C2S3,2020.1.3,Win32,60,,,,,i,1,0.44844,1,media/dfnb.png,2,"[-1,1,-1]",4,1,Symb,i,RT,0,0,104,1,3,99,99,i,0.44844,1,4,104,0,104,0,1,,,,,,,
,,,,,,,,,,,,,,,,,,,,1,4,2021-01-11_00h44.10.845,CL_C2S3,2020.1.3,Win32,60,,,,,h,1,0.69028,1,media/dfnb.png,1,"[1,-1,-1]",1,1,Symb,h,RT,0,0,105,1,3,99,99,h,0.69028,1,4,105,0,105,0,1,,,,,,,
,,,,,,,,,,,,,,,,,,,,1,4,2021-01-11_00h44.10.845,CL_C2S3,2020.1.3,Win32,60,,,,,i,1,1.004825,2,media/dknb.png,1,"[1,-1,-1]",2,0,Symb,i,RT,0,0,106,1,3,99,99,i,1.004825,1,4,106,0,106,0,1,,,,,,,
,,,,,,,,,,,,,,,,,,,,1,4,2021-01-11_00h44.10.845,CL_C2S3,2020.1.3,Win32,60,,,,,u,1,0.94358,0,media/dcnb.png,1,"[1,-1,-1]",0,0,Symb,u,RT,0,0,107,1,3,99,99,u,0.94358,1,4,107,0,107,0,1,,,,,,,
,,,,,,,,,,,,,,,,,,,,1,4,2021-01-11_00h44.10.845,CL_C2S3,2020.1.3,Win32,60,,,,,h,1,0.5452,0,media/dcnb.png,2,"[-1,1,-1]",3,0,Symb,h,RT,0,0,108,1,3,99,99,h,0.5452,1,4,108,0,108,0,1,,,,,,,
,,,,,,,,,,,,,,,,,,,,1,4,2021-01-11_00h44.10.845,CL_C2S3,2020.1.3,Win32,60,,,,,h,0,0.7553,0,media/dcnb.png,1,"[1,-1,-1]",0,0,Symb,u,RT,0,0,109,1,3,99,99,h,0.7553,0,4,109,0,109,0,1,,,,,,,
,,,,,,,,,,,,,,,,,,,,1,4,2021-01-11_00h44.10.845,CL_C2S3,2020.1.3,Win32,60,,,,,h,1,0.81301,0,media/dcnb.png,2,"[-1,1,-1]",3,0,Symb,h,RT,0,0,110,1,3,99,99,h,0.81301,1,4,110,0,110,0,1,,,,,,,
,,,,,,,,,,,,,,,,,,,,1,4,2021-01-11_00h44.10.845,CL_C2S3,2020.1.3,Win32,60,,,,,u,1,0.720635,2,media/dknb.png,2,"[-1,1,-1]",5,0,Symb,u,RT,0,0,111,1,3,99,99,u,0.720635,1,4,111,0,111,0,1,,,,,,,
,,,,,,,,,,,,,,,,,,,,1,4,2021-01-11_00h44.10.845,CL_C2S3,2020.1.3,Win32,60,,,,,h,1,0.72112,1,media/dfnb.png,1,"[1,-1,-1]",1,1,Symb,h,RT,0,0,112,1,3,99,99,h,0.72112,1,4,112,0,112,0,1,,,,,,,
,,,,,,,,,,,,,,,,,,,,1,4,2021-01-11_00h44.10.845,CL_C2S3,2020.1.3,Win32,60,,,,,u,1,0.552275,2,media/dknb.png,2,"[-1,1,-1]",5,0,Symb,u,RT,0,0,113,1,3,99,99,u,0.552275,1,4,113,0,113,0,1,,,,,,,
,,,,,,,,,,,,,,,,,,,,1,4,2021-01-11_00h44.10.845,CL_C2S3,2020.1.3,Win32,60,,,,,u,1,0.464225,2,media/dknb.png,2,"[-1,1,-1]",5,0,Symb,u,RT,0,0,114,1,3,99,99,u,0.464225,1,4,114,0,114,0,1,,,,,,,
,,,,,,,,,,,,,,,,,,,,1,4,2021-01-11_00h44.10.845,CL_C2S3,2020.1.3,Win32,60,,,,,i,1,0.6311,1,media/dfnb.png,2,"[-1,1,-1]",4,1,Symb,i,RT,0,0,115,1,3,99,99,i,0.6311,1,4,115,0,115,0,1,,,,,,,
,,,,,,,,,,,,,,,,,,,,1,4,2021-01-11_00h44.10.845,CL_C2S3,2020.1.3,Win32,60,,,,,u,1,0.79328,0,media/dcnb.png,1,"[1,-1,-1]",0,0,Symb,u,RT,0,0,116,1,3,99,99,u,0.79328,1,4,116,0,116,0,1,,,,,,,
,,,,,,,,,,,,,,,,,,,,1,4,2021-01-11_00h44.10.845,CL_C2S3,2020.1.3,Win32,60,,,,,h,1,0.394755,0,media/dcnb.png,2,"[-1,1,-1]",3,0,Symb,h,RT,0,0,117,1,3,99,99,h,0.394755,1,4,117,0,117,0,1,,,,,,,
,,,,,,,,,,,,,,,,,,,,1,4,2021-01-11_00h44.10.845,CL_C2S3,2020.1.3,Win32,60,,,,,i,1,0.785215,2,media/dknb.png,1,"[1,-1,-1]",2,0,Symb,i,RT,0,0,118,1,3,99,99,i,0.785215,1,4,118,0,118,0,1,,,,,,,
,,,,,,,,,,,,,,,,,,,,1,4,2021-01-11_00h44.10.845,CL_C2S3,2020.1.3,Win32,60,,,,,h,1,0.60672,1,media/dfnb.png,1,"[1,-1,-1]",1,1,Symb,h,RT,0,0,119,1,3,99,99,h,0.60672,1,4,119,0,119,0,1,,,,,,,
,,,,,,,,,,,,,,,,,,,,1,4,2021-01-11_00h44.10.845,CL_C2S3,2020.1.3,Win32,60,,,,,,,,,,,,,,,,,,,,,,,,,,,,,,,,,2,0,2,0,1,,
,,,,,,,,,,,,,,,,,,,,1,4,2021-01-11_00h44.10.845,CL_C2S3,2020.1.3,Win32,60,,,h,4.42268,h,1,0.813395,1,media/dfnb.png,1,"[1,-1,-1]",1,1,Symb,h,RT,0,0,0,1,4,99,99,h,0.813395,1,4,0,0,0,0,1,,,,,,,
,,,,,,,,,,,,,,,,,,,,1,4,2021-01-11_00h44.10.845,CL_C2S3,2020.1.3,Win32,60,,,,,i,1,0.66409,2,media/dknb.png,1,"[1,-1,-1]",2,0,Symb,i,RT,0,0,1,1,4,99,99,i,0.66409,1,4,1,0,1,0,1,,,,,,,
,,,,,,,,,,,,,,,,,,,,1,4,2021-01-11_00h44.10.845,CL_C2S3,2020.1.3,Win32,60,,,,,h,1,0.65686,0,media/dcnb.png,2,"[-1,1,-1]",3,0,Symb,h,RT,0,0,2,1,4,99,99,h,0.65686,1,4,2,0,2,0,1,,,,,,,
,,,,,,,,,,,,,,,,,,,,1,4,2021-01-11_00h44.10.845,CL_C2S3,2020.1.3,Win32,60,,,,,u,1,0.621855,0,media/dcnb.png,1,"[1,-1,-1]",0,0,Symb,u,RT,0,0,3,1,4,99,99,u,0.621855,1,4,3,0,3,0,1,,,,,,,
,,,,,,,,,,,,,,,,,,,,1,4,2021-01-11_00h44.10.845,CL_C2S3,2020.1.3,Win32,60,,,,,i,1,0.62586,2,media/dknb.png,1,"[1,-1,-1]",2,0,Symb,i,RT,0,0,4,1,4,99,99,i,0.62586,1,4,4,0,4,0,1,,,,,,,
,,,,,,,,,,,,,,,,,,,,1,4,2021-01-11_00h44.10.845,CL_C2S3,2020.1.3,Win32,60,,,,,u,1,0.60151,2,media/dknb.png,2,"[-1,1,-1]",5,0,Symb,u,RT,0,0,5,1,4,99,99,u,0.60151,1,4,5,0,5,0,1,,,,,,,
,,,,,,,,,,,,,,,,,,,,1,4,2021-01-11_00h44.10.845,CL_C2S3,2020.1.3,Win32,60,,,,,i,1,0.687205,1,media/dfnb.png,2,"[-1,1,-1]",4,1,Symb,i,RT,0,0,6,1,4,99,99,i,0.687205,1,4,6,0,6,0,1,,,,,,,
,,,,,,,,,,,,,,,,,,,,1,4,2021-01-11_00h44.10.845,CL_C2S3,2020.1.3,Win32,60,,,,,h,1,0.53848,1,media/dfnb.png,1,"[1,-1,-1]",1,1,Symb,h,RT,0,0,7,1,4,99,99,h,0.53848,1,4,7,0,7,0,1,,,,,,,
,,,,,,,,,,,,,,,,,,,,1,4,2021-01-11_00h44.10.845,CL_C2S3,2020.1.3,Win32,60,,,,,u,1,0.55862,2,media/dknb.png,2,"[-1,1,-1]",5,0,Symb,u,RT,0,0,8,1,4,99,99,u,0.55862,1,4,8,0,8,0,1,,,,,,,
,,,,,,,,,,,,,,,,,,,,1,4,2021-01-11_00h44.10.845,CL_C2S3,2020.1.3,Win32,60,,,,,h,0,0.66346,0,media/dcnb.png,1,"[1,-1,-1]",0,0,Symb,u,RT,0,0,9,1,4,99,99,h,0.66346,0,4,9,0,9,0,1,,,,,,,
,,,,,,,,,,,,,,,,,,,,1,4,2021-01-11_00h44.10.845,CL_C2S3,2020.1.3,Win32,60,,,,,h,1,0.73462,0,media/dcnb.png,2,"[-1,1,-1]",3,0,Symb,h,RT,0,0,10,1,4,99,99,h,0.73462,1,4,10,0,10,0,1,,,,,,,
,,,,,,,,,,,,,,,,,,,,1,4,2021-01-11_00h44.10.845,CL_C2S3,2020.1.3,Win32,60,,,,,i,1,0.96031,1,media/dfnb.png,2,"[-1,1,-1]",4,1,Symb,i,RT,0,0,11,1,4,99,99,i,0.96031,1,4,11,0,11,0,1,,,,,,,
,,,,,,,,,,,,,,,,,,,,1,4,2021-01-11_00h44.10.845,CL_C2S3,2020.1.3,Win32,60,,,,,i,1,1.514775,2,media/dknb.png,1,"[1,-1,-1]",2,0,Symb,i,RT,0,0,12,1,4,99,99,i,1.514775,1,4,12,0,12,0,1,,,,,,,
,,,,,,,,,,,,,,,,,,,,1,4,2021-01-11_00h44.10.845,CL_C2S3,2020.1.3,Win32,60,,,,,u,1,0.736855,0,media/dcnb.png,1,"[1,-1,-1]",0,0,Symb,u,RT,0,0,13,1,4,99,99,u,0.736855,1,4,13,0,13,0,1,,,,,,,
,,,,,,,,,,,,,,,,,,,,1,4,2021-01-11_00h44.10.845,CL_C2S3,2020.1.3,Win32,60,,,,,u,1,0.39973,0,media/dcnb.png,1,"[1,-1,-1]",0,0,Symb,u,RT,0,0,14,1,4,99,99,u,0.39973,1,4,14,0,14,0,1,,,,,,,
,,,,,,,,,,,,,,,,,,,,1,4,2021-01-11_00h44.10.845,CL_C2S3,2020.1.3,Win32,60,,,,,h,1,0.59958,0,media/dcnb.png,2,"[-1,1,-1]",3,0,Symb,h,RT,0,0,15,1,4,99,99,h,0.59958,1,4,15,0,15,0,1,,,,,,,
,,,,,,,,,,,,,,,,,,,,1,4,2021-01-11_00h44.10.845,CL_C2S3,2020.1.3,Win32,60,,,,,h,1,0.86426,1,media/dfnb.png,1,"[1,-1,-1]",1,1,Symb,h,RT,0,0,16,1,4,99,99,h,0.86426,1,4,16,0,16,0,1,,,,,,,
,,,,,,,,,,,,,,,,,,,,1,4,2021-01-11_00h44.10.845,CL_C2S3,2020.1.3,Win32,60,,,,,u,1,0.749585,2,media/dknb.png,2,"[-1,1,-1]",5,0,Symb,u,RT,0,0,17,1,4,99,99,u,0.749585,1,4,17,0,17,0,1,,,,,,,
,,,,,,,,,,,,,,,,,,,,1,4,2021-01-11_00h44.10.845,CL_C2S3,2020.1.3,Win32,60,,,,,i,1,0.53188,2,media/dknb.png,1,"[1,-1,-1]",2,0,Symb,i,RT,0,0,18,1,4,99,99,i,0.53188,1,4,18,0,18,0,1,,,,,,,
,,,,,,,,,,,,,,,,,,,,1,4,2021-01-11_00h44.10.845,CL_C2S3,2020.1.3,Win32,60,,,,,h,1,0.78041,0,media/dcnb.png,2,"[-1,1,-1]",3,0,Symb,h,RT,0,0,19,1,4,99,99,h,0.78041,1,4,19,0,19,0,1,,,,,,,
,,,,,,,,,,,,,,,,,,,,1,4,2021-01-11_00h44.10.845,CL_C2S3,2020.1.3,Win32,60,,,,,h,1,1.560275,1,media/dfnb.png,1,"[1,-1,-1]",1,1,Symb,h,RT,0,0,20,1,4,99,99,h,1.560275,1,4,20,0,20,0,1,,,,,,,
,,,,,,,,,,,,,,,,,,,,1,4,2021-01-11_00h44.10.845,CL_C2S3,2020.1.3,Win32,60,,,,,i,1,1.721215,1,media/dfnb.png,2,"[-1,1,-1]",4,1,Symb,i,RT,0,0,21,1,4,99,99,i,1.721215,1,4,21,0,21,0,1,,,,,,,
,,,,,,,,,,,,,,,,,,,,1,4,2021-01-11_00h44.10.845,CL_C2S3,2020.1.3,Win32,60,,,,,u,1,0.53755,2,media/dknb.png,2,"[-1,1,-1]",5,0,Symb,u,RT,0,0,22,1,4,99,99,u,0.53755,1,4,22,0,22,0,1,,,,,,,
,,,,,,,,,,,,,,,,,,,,1,4,2021-01-11_00h44.10.845,CL_C2S3,2020.1.3,Win32,60,,,,,h,0,0.7378,1,media/dfnb.png,2,"[-1,1,-1]",4,1,Symb,i,RT,0,0,23,1,4,99,99,h,0.7378,0,4,23,0,23,0,1,,,,,,,
,,,,,,,,,,,,,,,,,,,,1,4,2021-01-11_00h44.10.845,CL_C2S3,2020.1.3,Win32,60,,,,,h,1,0.820475,0,media/dcnb.png,2,"[-1,1,-1]",3,0,Symb,h,RT,0,0,24,1,4,99,99,h,0.820475,1,4,24,0,24,0,1,,,,,,,
,,,,,,,,,,,,,,,,,,,,1,4,2021-01-11_00h44.10.845,CL_C2S3,2020.1.3,Win32,60,,,,,i,1,0.58972,2,media/dknb.png,1,"[1,-1,-1]",2,0,Symb,i,RT,0,0,25,1,4,99,99,i,0.58972,1,4,25,0,25,0,1,,,,,,,
,,,,,,,,,,,,,,,,,,,,1,4,2021-01-11_00h44.10.845,CL_C2S3,2020.1.3,Win32,60,,,,,h,1,0.901145,1,media/dfnb.png,1,"[1,-1,-1]",1,1,Symb,h,RT,0,0,26,1,4,99,99,h,0.901145,1,4,26,0,26,0,1,,,,,,,
,,,,,,,,,,,,,,,,,,,,1,4,2021-01-11_00h44.10.845,CL_C2S3,2020.1.3,Win32,60,,,,,u,1,0.53719,2,media/dknb.png,2,"[-1,1,-1]",5,0,Symb,u,RT,0,0,27,1,4,99,99,u,0.53719,1,4,27,0,27,0,1,,,,,,,
,,,,,,,,,,,,,,,,,,,,1,4,2021-01-11_00h44.10.845,CL_C2S3,2020.1.3,Win32,60,,,,,i,1,0.931485,1,media/dfnb.png,2,"[-1,1,-1]",4,1,Symb,i,RT,0,0,28,1,4,99,99,i,0.931485,1,4,28,0,28,0,1,,,,,,,
,,,,,,,,,,,,,,,,,,,,1,4,2021-01-11_00h44.10.845,CL_C2S3,2020.1.3,Win32,60,,,,,h,0,0.68198,0,media/dcnb.png,1,"[1,-1,-1]",0,0,Symb,u,RT,0,0,29,1,4,99,99,h,0.68198,0,4,29,0,29,0,1,,,,,,,
,,,,,,,,,,,,,,,,,,,,1,4,2021-01-11_00h44.10.845,CL_C2S3,2020.1.3,Win32,60,,,,,i,1,1.67359,1,media/dfnb.png,2,"[-1,1,-1]",4,1,Symb,i,RT,0,0,30,1,4,99,99,i,1.67359,1,4,30,0,30,0,1,,,,,,,
,,,,,,,,,,,,,,,,,,,,1,4,2021-01-11_00h44.10.845,CL_C2S3,2020.1.3,Win32,60,,,,,u,0,0.59011,2,media/dknb.png,1,"[1,-1,-1]",2,0,Symb,i,RT,0,0,31,1,4,99,99,u,0.59011,0,4,31,0,31,0,1,,,,,,,
,,,,,,,,,,,,,,,,,,,,1,4,2021-01-11_00h44.10.845,CL_C2S3,2020.1.3,Win32,60,,,,,h,1,0.804395,1,media/dfnb.png,1,"[1,-1,-1]",1,1,Symb,h,RT,0,0,32,1,4,99,99,h,0.804395,1,4,32,0,32,0,1,,,,,,,
,,,,,,,,,,,,,,,,,,,,1,4,2021-01-11_00h44.10.845,CL_C2S3,2020.1.3,Win32,60,,,,,u,1,0.885515,2,media/dknb.png,2,"[-1,1,-1]",5,0,Symb,u,RT,0,0,33,1,4,99,99,u,0.885515,1,4,33,0,33,0,1,,,,,,,
,,,,,,,,,,,,,,,,,,,,1,4,2021-01-11_00h44.10.845,CL_C2S3,2020.1.3,Win32,60,,,,,h,1,0.7643,0,media/dcnb.png,2,"[-1,1,-1]",3,0,Symb,h,RT,0,0,34,1,4,99,99,h,0.7643,1,4,34,0,34,0,1,,,,,,,
,,,,,,,,,,,,,,,,,,,,1,4,2021-01-11_00h44.10.845,CL_C2S3,2020.1.3,Win32,60,,,,,h,1,0.44646,0,media/dcnb.png,2,"[-1,1,-1]",3,0,Symb,h,RT,0,0,35,1,4,99,99,h,0.44646,1,4,35,0,35,0,1,,,,,,,
,,,,,,,,,,,,,,,,,,,,1,4,2021-01-11_00h44.10.845,CL_C2S3,2020.1.3,Win32,60,,,,,u,1,0.63777,2,media/dknb.png,2,"[-1,1,-1]",5,0,Symb,u,RT,0,0,36,1,4,99,99,u,0.63777,1,4,36,0,36,0,1,,,,,,,
,,,,,,,,,,,,,,,,,,,,1,4,2021-01-11_00h44.10.845,CL_C2S3,2020.1.3,Win32,60,,,,,u,1,2.03707,0,media/dcnb.png,1,"[1,-1,-1]",0,0,Symb,u,RT,0,0,37,1,4,99,99,u,2.03707,1,4,37,0,37,0,1,,,,,,,
,,,,,,,,,,,,,,,,,,,,1,4,2021-01-11_00h44.10.845,CL_C2S3,2020.1.3,Win32,60,,,,,u,1,0.44104,0,media/dcnb.png,1,"[1,-1,-1]",0,0,Symb,u,RT,0,0,38,1,4,99,99,u,0.44104,1,4,38,0,38,0,1,,,,,,,
,,,,,,,,,,,,,,,,,,,,1,4,2021-01-11_00h44.10.845,CL_C2S3,2020.1.3,Win32,60,,,,,h,1,0.95784,1,media/dfnb.png,1,"[1,-1,-1]",1,1,Symb,h,RT,0,0,39,1,4,99,99,h,0.95784,1,4,39,0,39,0,1,,,,,,,
,,,,,,,,,,,,,,,,,,,,1,4,2021-01-11_00h44.10.845,CL_C2S3,2020.1.3,Win32,60,,,,,i,1,0.65438,1,media/dfnb.png,2,"[-1,1,-1]",4,1,Symb,i,RT,0,0,40,1,4,99,99,i,0.65438,1,4,40,0,40,0,1,,,,,,,
,,,,,,,,,,,,,,,,,,,,1,4,2021-01-11_00h44.10.845,CL_C2S3,2020.1.3,Win32,60,,,,,i,1,0.889845,2,media/dknb.png,1,"[1,-1,-1]",2,0,Symb,i,RT,0,0,41,1,4,99,99,i,0.889845,1,4,41,0,41,0,1,,,,,,,
,,,,,,,,,,,,,,,,,,,,1,4,2021-01-11_00h44.10.845,CL_C2S3,2020.1.3,Win32,60,,,,,u,1,0.89279,0,media/dcnb.png,1,"[1,-1,-1]",0,0,Symb,u,RT,0,0,42,1,4,99,99,u,0.89279,1,4,42,0,42,0,1,,,,,,,
,,,,,,,,,,,,,,,,,,,,1,4,2021-01-11_00h44.10.845,CL_C2S3,2020.1.3,Win32,60,,,,,i,1,0.699945,2,media/dknb.png,1,"[1,-1,-1]",2,0,Symb,i,RT,0,0,43,1,4,99,99,i,0.699945,1,4,43,0,43,0,1,,,,,,,
,,,,,,,,,,,,,,,,,,,,1,4,2021-01-11_00h44.10.845,CL_C2S3,2020.1.3,Win32,60,,,,,u,1,0.532585,2,media/dknb.png,2,"[-1,1,-1]",5,0,Symb,u,RT,0,0,44,1,4,99,99,u,0.532585,1,4,44,0,44,0,1,,,,,,,
,,,,,,,,,,,,,,,,,,,,1,4,2021-01-11_00h44.10.845,CL_C2S3,2020.1.3,Win32,60,,,,,h,1,0.67011,0,media/dcnb.png,2,"[-1,1,-1]",3,0,Symb,h,RT,0,0,45,1,4,99,99,h,0.67011,1,4,45,0,45,0,1,,,,,,,
,,,,,,,,,,,,,,,,,,,,1,4,2021-01-11_00h44.10.845,CL_C2S3,2020.1.3,Win32,60,,,,,h,1,0.3993,1,media/dfnb.png,1,"[1,-1,-1]",1,1,Symb,h,RT,0,0,46,1,4,99,99,h,0.3993,1,4,46,0,46,0,1,,,,,,,
,,,,,,,,,,,,,,,,,,,,1,4,2021-01-11_00h44.10.845,CL_C2S3,2020.1.3,Win32,60,,,,,h,1,0.892095,1,media/dfnb.png,1,"[1,-1,-1]",1,1,Symb,h,RT,0,0,47,1,4,99,99,h,0.892095,1,4,47,0,47,0,1,,,,,,,
,,,,,,,,,,,,,,,,,,,,1,4,2021-01-11_00h44.10.845,CL_C2S3,2020.1.3,Win32,60,,,,,u,1,0.583155,0,media/dcnb.png,1,"[1,-1,-1]",0,0,Symb,u,RT,0,0,48,1,4,99,99,u,0.583155,1,4,48,0,48,0,1,,,,,,,
,,,,,,,,,,,,,,,,,,,,1,4,2021-01-11_00h44.10.845,CL_C2S3,2020.1.3,Win32,60,,,,,i,1,0.532875,1,media/dfnb.png,2,"[-1,1,-1]",4,1,Symb,i,RT,0,0,49,1,4,99,99,i,0.532875,1,4,49,0,49,0,1,,,,,,,
,,,,,,,,,,,,,,,,,,,,1,4,2021-01-11_00h44.10.845,CL_C2S3,2020.1.3,Win32,60,,,,,i,1,0.430405,1,media/dfnb.png,2,"[-1,1,-1]",4,1,Symb,i,RT,0,0,50,1,4,99,99,i,0.430405,1,4,50,0,50,0,1,,,,,,,
,,,,,,,,,,,,,,,,,,,,1,4,2021-01-11_00h44.10.845,CL_C2S3,2020.1.3,Win32,60,,,,,i,1,0.4503,2,media/dknb.png,1,"[1,-1,-1]",2,0,Symb,i,RT,0,0,51,1,4,99,99,i,0.4503,1,4,51,0,51,0,1,,,,,,,
,,,,,,,,,,,,,,,,,,,,1,4,2021-01-11_00h44.10.845,CL_C2S3,2020.1.3,Win32,60,,,,,u,1,0.57804,2,media/dknb.png,2,"[-1,1,-1]",5,0,Symb,u,RT,0,0,52,1,4,99,99,u,0.57804,1,4,52,0,52,0,1,,,,,,,
,,,,,,,,,,,,,,,,,,,,1,4,2021-01-11_00h44.10.845,CL_C2S3,2020.1.3,Win32,60,,,,,h,1,0.41546,0,media/dcnb.png,2,"[-1,1,-1]",3,0,Symb,h,RT,0,0,53,1,4,99,99,h,0.41546,1,4,53,0,53,0,1,,,,,,,
,,,,,,,,,,,,,,,,,,,,1,4,2021-01-11_00h44.10.845,CL_C2S3,2020.1.3,Win32,60,,,,,u,1,0.716205,2,media/dknb.png,2,"[-1,1,-1]",5,0,Symb,u,RT,0,0,54,1,4,99,99,u,0.716205,1,4,54,0,54,0,1,,,,,,,
,,,,,,,,,,,,,,,,,,,,1,4,2021-01-11_00h44.10.845,CL_C2S3,2020.1.3,Win32,60,,,,,h,1,0.607045,1,media/dfnb.png,1,"[1,-1,-1]",1,1,Symb,h,RT,0,0,55,1,4,99,99,h,0.607045,1,4,55,0,55,0,1,,,,,,,
,,,,,,,,,,,,,,,,,,,,1,4,2021-01-11_00h44.10.845,CL_C2S3,2020.1.3,Win32,60,,,,,h,1,1.133955,0,media/dcnb.png,2,"[-1,1,-1]",3,0,Symb,h,RT,0,0,56,1,4,99,99,h,1.133955,1,4,56,0,56,0,1,,,,,,,
,,,,,,,,,,,,,,,,,,,,1,4,2021-01-11_00h44.10.845,CL_C2S3,2020.1.3,Win32,60,,,,,u,1,0.53149,0,media/dcnb.png,1,"[1,-1,-1]",0,0,Symb,u,RT,0,0,57,1,4,99,99,u,0.53149,1,4,57,0,57,0,1,,,,,,,
,,,,,,,,,,,,,,,,,,,,1,4,2021-01-11_00h44.10.845,CL_C2S3,2020.1.3,Win32,60,,,,,i,1,0.804145,2,media/dknb.png,1,"[1,-1,-1]",2,0,Symb,i,RT,0,0,58,1,4,99,99,i,0.804145,1,4,58,0,58,0,1,,,,,,,
,,,,,,,,,,,,,,,,,,,,1,4,2021-01-11_00h44.10.845,CL_C2S3,2020.1.3,Win32,60,,,,,i,1,0.636285,1,media/dfnb.png,2,"[-1,1,-1]",4,1,Symb,i,RT,0,0,59,1,4,99,99,i,0.636285,1,4,59,0,59,0,1,,,,,,,
,,,,,,,,,,,,,,,,,,,,1,4,2021-01-11_00h44.10.845,CL_C2S3,2020.1.3,Win32,60,,,,,h,0,0.78481,0,media/dcnb.png,1,"[1,-1,-1]",0,0,Symb,u,RT,0,0,60,1,4,99,99,h,0.78481,0,4,60,0,60,0,1,,,,,,,
,,,,,,,,,,,,,,,,,,,,1,4,2021-01-11_00h44.10.845,CL_C2S3,2020.1.3,Win32,60,,,,,u,1,0.66189,2,media/dknb.png,2,"[-1,1,-1]",5,0,Symb,u,RT,0,0,61,1,4,99,99,u,0.66189,1,4,61,0,61,0,1,,,,,,,
,,,,,,,,,,,,,,,,,,,,1,4,2021-01-11_00h44.10.845,CL_C2S3,2020.1.3,Win32,60,,,,,u,1,0.733645,0,media/dcnb.png,1,"[1,-1,-1]",0,0,Symb,u,RT,0,0,62,1,4,99,99,u,0.733645,1,4,62,0,62,0,1,,,,,,,
,,,,,,,,,,,,,,,,,,,,1,4,2021-01-11_00h44.10.845,CL_C2S3,2020.1.3,Win32,60,,,,,h,1,0.676045,0,media/dcnb.png,2,"[-1,1,-1]",3,0,Symb,h,RT,0,0,63,1,4,99,99,h,0.676045,1,4,63,0,63,0,1,,,,,,,
,,,,,,,,,,,,,,,,,,,,1,4,2021-01-11_00h44.10.845,CL_C2S3,2020.1.3,Win32,60,,,,,i,1,0.654555,2,media/dknb.png,1,"[1,-1,-1]",2,0,Symb,i,RT,0,0,64,1,4,99,99,i,0.654555,1,4,64,0,64,0,1,,,,,,,
,,,,,,,,,,,,,,,,,,,,1,4,2021-01-11_00h44.10.845,CL_C2S3,2020.1.3,Win32,60,,,,,u,0,0.752475,0,media/dcnb.png,2,"[-1,1,-1]",3,0,Symb,h,RT,0,0,65,1,4,99,99,u,0.752475,0,4,65,0,65,0,1,,,,,,,
,,,,,,,,,,,,,,,,,,,,1,4,2021-01-11_00h44.10.845,CL_C2S3,2020.1.3,Win32,60,,,,,u,1,0.926175,2,media/dknb.png,2,"[-1,1,-1]",5,0,Symb,u,RT,0,0,66,1,4,99,99,u,0.926175,1,4,66,0,66,0,1,,,,,,,
,,,,,,,,,,,,,,,,,,,,1,4,2021-01-11_00h44.10.845,CL_C2S3,2020.1.3,Win32,60,,,,,i,1,0.63811,2,media/dknb.png,1,"[1,-1,-1]",2,0,Symb,i,RT,0,0,67,1,4,99,99,i,0.63811,1,4,67,0,67,0,1,,,,,,,
,,,,,,,,,,,,,,,,,,,,1,4,2021-01-11_00h44.10.845,CL_C2S3,2020.1.3,Win32,60,,,,,h,1,0.78198,1,media/dfnb.png,1,"[1,-1,-1]",1,1,Symb,h,RT,0,0,68,1,4,99,99,h,0.78198,1,4,68,0,68,0,1,,,,,,,
,,,,,,,,,,,,,,,,,,,,1,4,2021-01-11_00h44.10.845,CL_C2S3,2020.1.3,Win32,60,,,,,i,1,0.59278,1,media/dfnb.png,2,"[-1,1,-1]",4,1,Symb,i,RT,0,0,69,1,4,99,99,i,0.59278,1,4,69,0,69,0,1,,,,,,,
,,,,,,,,,,,,,,,,,,,,1,4,2021-01-11_00h44.10.845,CL_C2S3,2020.1.3,Win32,60,,,,,i,0,0.4994,1,media/dfnb.png,1,"[1,-1,-1]",1,1,Symb,h,RT,0,0,70,1,4,99,99,i,0.4994,0,4,70,0,70,0,1,,,,,,,
,,,,,,,,,,,,,,,,,,,,1,4,2021-01-11_00h44.10.845,CL_C2S3,2020.1.3,Win32,60,,,,,i,1,0.454205,1,media/dfnb.png,2,"[-1,1,-1]",4,1,Symb,i,RT,0,0,71,1,4,99,99,i,0.454205,1,4,71,0,71,0,1,,,,,,,
,,,,,,,,,,,,,,,,,,,,1,4,2021-01-11_00h44.10.845,CL_C2S3,2020.1.3,Win32,60,,,,,i,1,0.80945,2,media/dknb.png,1,"[1,-1,-1]",2,0,Symb,i,RT,0,0,72,1,4,99,99,i,0.80945,1,4,72,0,72,0,1,,,,,,,
,,,,,,,,,,,,,,,,,,,,1,4,2021-01-11_00h44.10.845,CL_C2S3,2020.1.3,Win32,60,,,,,u,1,0.82346,0,media/dcnb.png,1,"[1,-1,-1]",0,0,Symb,u,RT,0,0,73,1,4,99,99,u,0.82346,1,4,73,0,73,0,1,,,,,,,
,,,,,,,,,,,,,,,,,,,,1,4,2021-01-11_00h44.10.845,CL_C2S3,2020.1.3,Win32,60,,,,,u,1,0.61576,2,media/dknb.png,2,"[-1,1,-1]",5,0,Symb,u,RT,0,0,74,1,4,99,99,u,0.61576,1,4,74,0,74,0,1,,,,,,,
,,,,,,,,,,,,,,,,,,,,1,4,2021-01-11_00h44.10.845,CL_C2S3,2020.1.3,Win32,60,,,,,h,1,0.96884,1,media/dfnb.png,1,"[1,-1,-1]",1,1,Symb,h,RT,0,0,75,1,4,99,99,h,0.96884,1,4,75,0,75,0,1,,,,,,,
,,,,,,,,,,,,,,,,,,,,1,4,2021-01-11_00h44.10.845,CL_C2S3,2020.1.3,Win32,60,,,,,h,1,1.01341,0,media/dcnb.png,2,"[-1,1,-1]",3,0,Symb,h,RT,0,0,76,1,4,99,99,h,1.01341,1,4,76,0,76,0,1,,,,,,,
,,,,,,,,,,,,,,,,,,,,1,4,2021-01-11_00h44.10.845,CL_C2S3,2020.1.3,Win32,60,,,,,h,0,0.71518,1,media/dfnb.png,2,"[-1,1,-1]",4,1,Symb,i,RT,0,0,77,1,4,99,99,h,0.71518,0,4,77,0,77,0,1,,,,,,,
,,,,,,,,,,,,,,,,,,,,1,4,2021-01-11_00h44.10.845,CL_C2S3,2020.1.3,Win32,60,,,,,h,1,0.787745,0,media/dcnb.png,2,"[-1,1,-1]",3,0,Symb,h,RT,0,0,78,1,4,99,99,h,0.787745,1,4,78,0,78,0,1,,,,,,,
,,,,,,,,,,,,,,,,,,,,1,4,2021-01-11_00h44.10.845,CL_C2S3,2020.1.3,Win32,60,,,,,i,1,0.69556,2,media/dknb.png,1,"[1,-1,-1]",2,0,Symb,i,RT,0,0,79,1,4,99,99,i,0.69556,1,4,79,0,79,0,1,,,,,,,
,,,,,,,,,,,,,,,,,,,,1,4,2021-01-11_00h44.10.845,CL_C2S3,2020.1.3,Win32,60,,,,,h,1,0.87504,1,media/dfnb.png,1,"[1,-1,-1]",1,1,Symb,h,RT,0,0,80,1,4,99,99,h,0.87504,1,4,80,0,80,0,1,,,,,,,
,,,,,,,,,,,,,,,,,,,,1,4,2021-01-11_00h44.10.845,CL_C2S3,2020.1.3,Win32,60,,,,,u,1,1.599615,0,media/dcnb.png,1,"[1,-1,-1]",0,0,Symb,u,RT,0,0,81,1,4,99,99,u,1.599615,1,4,81,0,81,0,1,,,,,,,
,,,,,,,,,,,,,,,,,,,,1,4,2021-01-11_00h44.10.845,CL_C2S3,2020.1.3,Win32,60,,,,,u,1,0.740885,2,media/dknb.png,2,"[-1,1,-1]",5,0,Symb,u,RT,0,0,82,1,4,99,99,u,0.740885,1,4,82,0,82,0,1,,,,,,,
,,,,,,,,,,,,,,,,,,,,1,4,2021-01-11_00h44.10.845,CL_C2S3,2020.1.3,Win32,60,,,,,h,0,0.674685,1,media/dfnb.png,2,"[-1,1,-1]",4,1,Symb,i,RT,0,0,83,1,4,99,99,h,0.674685,0,4,83,0,83,0,1,,,,,,,
,,,,,,,,,,,,,,,,,,,,1,4,2021-01-11_00h44.10.845,CL_C2S3,2020.1.3,Win32,60,,,,,h,0,0.82352,0,media/dcnb.png,1,"[1,-1,-1]",0,0,Symb,u,RT,0,0,84,1,4,99,99,h,0.82352,0,4,84,0,84,0,1,,,,,,,
,,,,,,,,,,,,,,,,,,,,1,4,2021-01-11_00h44.10.845,CL_C2S3,2020.1.3,Win32,60,,,,,h,1,0.801935,0,media/dcnb.png,2,"[-1,1,-1]",3,0,Symb,h,RT,0,0,85,1,4,99,99,h,0.801935,1,4,85,0,85,0,1,,,,,,,
,,,,,,,,,,,,,,,,,,,,1,4,2021-01-11_00h44.10.845,CL_C2S3,2020.1.3,Win32,60,,,,,i,1,0.68053,2,media/dknb.png,1,"[1,-1,-1]",2,0,Symb,i,RT,0,0,86,1,4,99,99,i,0.68053,1,4,86,0,86,0,1,,,,,,,
,,,,,,,,,,,,,,,,,,,,1,4,2021-01-11_00h44.10.845,CL_C2S3,2020.1.3,Win32,60,,,,,u,1,0.707775,2,media/dknb.png,2,"[-1,1,-1]",5,0,Symb,u,RT,0,0,87,1,4,99,99,u,0.707775,1,4,87,0,87,0,1,,,,,,,
,,,,,,,,,,,,,,,,,,,,1,4,2021-01-11_00h44.10.845,CL_C2S3,2020.1.3,Win32,60,,,,,i,1,1.397255,1,media/dfnb.png,2,"[-1,1,-1]",4,1,Symb,i,RT,0,0,88,1,4,99,99,i,1.397255,1,4,88,0,88,0,1,,,,,,,
,,,,,,,,,,,,,,,,,,,,1,4,2021-01-11_00h44.10.845,CL_C2S3,2020.1.3,Win32,60,,,,,h,1,0.592055,1,media/dfnb.png,1,"[1,-1,-1]",1,1,Symb,h,RT,0,0,89,1,4,99,99,h,0.592055,1,4,89,0,89,0,1,,,,,,,
,,,,,,,,,,,,,,,,,,,,1,4,2021-01-11_00h44.10.845,CL_C2S3,2020.1.3,Win32,60,,,,,u,1,0.805695,0,media/dcnb.png,1,"[1,-1,-1]",0,0,Symb,u,RT,0,0,90,1,4,99,99,u,0.805695,1,4,90,0,90,0,1,,,,,,,
,,,,,,,,,,,,,,,,,,,,1,4,2021-01-11_00h44.10.845,CL_C2S3,2020.1.3,Win32,60,,,,,u,1,0.49237,0,media/dcnb.png,1,"[1,-1,-1]",0,0,Symb,u,RT,0,0,91,1,4,99,99,u,0.49237,1,4,91,0,91,0,1,,,,,,,
,,,,,,,,,,,,,,,,,,,,1,4,2021-01-11_00h44.10.845,CL_C2S3,2020.1.3,Win32,60,,,,,h,1,1.879775,1,media/dfnb.png,1,"[1,-1,-1]",1,1,Symb,h,RT,0,0,92,1,4,99,99,h,1.879775,1,4,92,0,92,0,1,,,,,,,
,,,,,,,,,,,,,,,,,,,,1,4,2021-01-11_00h44.10.845,CL_C2S3,2020.1.3,Win32,60,,,,,u,0,0.4858,1,media/dfnb.png,2,"[-1,1,-1]",4,1,Symb,i,RT,0,0,93,1,4,99,99,u,0.4858,0,4,93,0,93,0,1,,,,,,,
,,,,,,,,,,,,,,,,,,,,1,4,2021-01-11_00h44.10.845,CL_C2S3,2020.1.3,Win32,60,,,,,i,1,0.628425,1,media/dfnb.png,2,"[-1,1,-1]",4,1,Symb,i,RT,0,0,94,1,4,99,99,i,0.628425,1,4,94,0,94,0,1,,,,,,,
,,,,,,,,,,,,,,,,,,,,1,4,2021-01-11_00h44.10.845,CL_C2S3,2020.1.3,Win32,60,,,,,u,1,0.7681,2,media/dknb.png,2,"[-1,1,-1]",5,0,Symb,u,RT,0,0,95,1,4,99,99,u,0.7681,1,4,95,0,95,0,1,,,,,,,
,,,,,,,,,,,,,,,,,,,,1,4,2021-01-11_00h44.10.845,CL_C2S3,2020.1.3,Win32,60,,,,,h,1,0.77821,0,media/dcnb.png,2,"[-1,1,-1]",3,0,Symb,h,RT,0,0,96,1,4,99,99,h,0.77821,1,4,96,0,96,0,1,,,,,,,
,,,,,,,,,,,,,,,,,,,,1,4,2021-01-11_00h44.10.845,CL_C2S3,2020.1.3,Win32,60,,,,,h,1,0.76032,1,media/dfnb.png,1,"[1,-1,-1]",1,1,Symb,h,RT,0,0,97,1,4,99,99,h,0.76032,1,4,97,0,97,0,1,,,,,,,
,,,,,,,,,,,,,,,,,,,,1,4,2021-01-11_00h44.10.845,CL_C2S3,2020.1.3,Win32,60,,,,,u,1,0.593085,2,media/dknb.png,2,"[-1,1,-1]",5,0,Symb,u,RT,0,0,98,1,4,99,99,u,0.593085,1,4,98,0,98,0,1,,,,,,,
,,,,,,,,,,,,,,,,,,,,1,4,2021-01-11_00h44.10.845,CL_C2S3,2020.1.3,Win32,60,,,,,i,1,0.592975,2,media/dknb.png,1,"[1,-1,-1]",2,0,Symb,i,RT,0,0,99,1,4,99,99,i,0.592975,1,4,99,0,99,0,1,,,,,,,
,,,,,,,,,,,,,,,,,,,,1,4,2021-01-11_00h44.10.845,CL_C2S3,2020.1.3,Win32,60,,,,,i,1,0.416305,2,media/dknb.png,1,"[1,-1,-1]",2,0,Symb,i,RT,0,0,100,1,4,99,99,i,0.416305,1,4,100,0,100,0,1,,,,,,,
,,,,,,,,,,,,,,,,,,,,1,4,2021-01-11_00h44.10.845,CL_C2S3,2020.1.3,Win32,60,,,,,h,1,0.827805,0,media/dcnb.png,2,"[-1,1,-1]",3,0,Symb,h,RT,0,0,101,1,4,99,99,h,0.827805,1,4,101,0,101,0,1,,,,,,,
,,,,,,,,,,,,,,,,,,,,1,4,2021-01-11_00h44.10.845,CL_C2S3,2020.1.3,Win32,60,,,,,u,1,0.60466,2,media/dknb.png,2,"[-1,1,-1]",5,0,Symb,u,RT,0,0,102,1,4,99,99,u,0.60466,1,4,102,0,102,0,1,,,,,,,
,,,,,,,,,,,,,,,,,,,,1,4,2021-01-11_00h44.10.845,CL_C2S3,2020.1.3,Win32,60,,,,,h,1,1.009685,0,media/dcnb.png,2,"[-1,1,-1]",3,0,Symb,h,RT,0,0,103,1,4,99,99,h,1.009685,1,4,103,0,103,0,1,,,,,,,
,,,,,,,,,,,,,,,,,,,,1,4,2021-01-11_00h44.10.845,CL_C2S3,2020.1.3,Win32,60,,,,,u,1,0.797585,0,media/dcnb.png,1,"[1,-1,-1]",0,0,Symb,u,RT,0,0,104,1,4,99,99,u,0.797585,1,4,104,0,104,0,1,,,,,,,
,,,,,,,,,,,,,,,,,,,,1,4,2021-01-11_00h44.10.845,CL_C2S3,2020.1.3,Win32,60,,,,,h,1,0.728235,1,media/dfnb.png,1,"[1,-1,-1]",1,1,Symb,h,RT,0,0,105,1,4,99,99,h,0.728235,1,4,105,0,105,0,1,,,,,,,
,,,,,,,,,,,,,,,,,,,,1,4,2021-01-11_00h44.10.845,CL_C2S3,2020.1.3,Win32,60,,,,,u,0,0.584205,1,media/dfnb.png,2,"[-1,1,-1]",4,1,Symb,i,RT,0,0,106,1,4,99,99,u,0.584205,0,4,106,0,106,0,1,,,,,,,
,,,,,,,,,,,,,,,,,,,,1,4,2021-01-11_00h44.10.845,CL_C2S3,2020.1.3,Win32,60,,,,,h,1,0.664205,1,media/dfnb.png,1,"[1,-1,-1]",1,1,Symb,h,RT,0,0,107,1,4,99,99,h,0.664205,1,4,107,0,107,0,1,,,,,,,
,,,,,,,,,,,,,,,,,,,,1,4,2021-01-11_00h44.10.845,CL_C2S3,2020.1.3,Win32,60,,,,,i,1,1.03161,2,media/dknb.png,1,"[1,-1,-1]",2,0,Symb,i,RT,0,0,108,1,4,99,99,i,1.03161,1,4,108,0,108,0,1,,,,,,,
,,,,,,,,,,,,,,,,,,,,1,4,2021-01-11_00h44.10.845,CL_C2S3,2020.1.3,Win32,60,,,,,u,1,1.06007,2,media/dknb.png,2,"[-1,1,-1]",5,0,Symb,u,RT,0,0,109,1,4,99,99,u,1.06007,1,4,109,0,109,0,1,,,,,,,
,,,,,,,,,,,,,,,,,,,,1,4,2021-01-11_00h44.10.845,CL_C2S3,2020.1.3,Win32,60,,,,,h,1,0.67939,0,media/dcnb.png,2,"[-1,1,-1]",3,0,Symb,h,RT,0,0,110,1,4,99,99,h,0.67939,1,4,110,0,110,0,1,,,,,,,
,,,,,,,,,,,,,,,,,,,,1,4,2021-01-11_00h44.10.845,CL_C2S3,2020.1.3,Win32,60,,,,,i,1,0.880625,2,media/dknb.png,1,"[1,-1,-1]",2,0,Symb,i,RT,0,0,111,1,4,99,99,i,0.880625,1,4,111,0,111,0,1,,,,,,,
,,,,,,,,,,,,,,,,,,,,1,4,2021-01-11_00h44.10.845,CL_C2S3,2020.1.3,Win32,60,,,,,i,1,1.1807,1,media/dfnb.png,2,"[-1,1,-1]",4,1,Symb,i,RT,0,0,112,1,4,99,99,i,1.1807,1,4,112,0,112,0,1,,,,,,,
,,,,,,,,,,,,,,,,,,,,1,4,2021-01-11_00h44.10.845,CL_C2S3,2020.1.3,Win32,60,,,,,u,1,1.861675,0,media/dcnb.png,1,"[1,-1,-1]",0,0,Symb,u,RT,0,0,113,1,4,99,99,u,1.861675,1,4,113,0,113,0,1,,,,,,,
,,,,,,,,,,,,,,,,,,,,1,4,2021-01-11_00h44.10.845,CL_C2S3,2020.1.3,Win32,60,,,,,i,1,0.963195,2,media/dknb.png,1,"[1,-1,-1]",2,0,Symb,i,RT,0,0,114,1,4,99,99,i,0.963195,1,4,114,0,114,0,1,,,,,,,
,,,,,,,,,,,,,,,,,,,,1,4,2021-01-11_00h44.10.845,CL_C2S3,2020.1.3,Win32,60,,,,,u,0,0.89311,1,media/dfnb.png,1,"[1,-1,-1]",1,1,Symb,h,RT,0,0,115,1,4,99,99,u,0.89311,0,4,115,0,115,0,1,,,,,,,
,,,,,,,,,,,,,,,,,,,,1,4,2021-01-11_00h44.10.845,CL_C2S3,2020.1.3,Win32,60,,,,,u,1,2.00875,0,media/dcnb.png,1,"[1,-1,-1]",0,0,Symb,u,RT,0,0,116,1,4,99,99,u,2.00875,1,4,116,0,116,0,1,,,,,,,
,,,,,,,,,,,,,,,,,,,,1,4,2021-01-11_00h44.10.845,CL_C2S3,2020.1.3,Win32,60,,,,,i,1,0.598655,1,media/dfnb.png,2,"[-1,1,-1]",4,1,Symb,i,RT,0,0,117,1,4,99,99,i,0.598655,1,4,117,0,117,0,1,,,,,,,
,,,,,,,,,,,,,,,,,,,,1,4,2021-01-11_00h44.10.845,CL_C2S3,2020.1.3,Win32,60,,,,,u,1,0.61905,2,media/dknb.png,2,"[-1,1,-1]",5,0,Symb,u,RT,0,0,118,1,4,99,99,u,0.61905,1,4,118,0,118,0,1,,,,,,,
,,,,,,,,,,,,,,,,,,,,1,4,2021-01-11_00h44.10.845,CL_C2S3,2020.1.3,Win32,60,,,,,h,1,0.57629,0,media/dcnb.png,2,"[-1,1,-1]",3,0,Symb,h,RT,0,0,119,1,4,99,99,h,0.57629,1,4,119,0,119,0,1,,,,,,,
,,,,,,,,,,,,,,,,,,,,1,4,2021-01-11_00h44.10.845,CL_C2S3,2020.1.3,Win32,60,,,,,,,,,,,,,,,,,,,,,,,,,,,,,,,,,3,0,3,0,1,,
,,,,,,,,,,,,,,,,,,,,1,4,2021-01-11_00h44.10.845,CL_C2S3,2020.1.3,Win32,60,,,h,330.626595,h,1,0.97287,0,media/dcnb.png,2,"[-1,1,-1]",3,0,Symb,h,RT,0,0,0,1,5,99,99,h,0.97287,1,4,0,0,0,0,1,,,,,,,
,,,,,,,,,,,,,,,,,,,,1,4,2021-01-11_00h44.10.845,CL_C2S3,2020.1.3,Win32,60,,,,,u,1,0.582825,2,media/dknb.png,2,"[-1,1,-1]",5,0,Symb,u,RT,0,0,1,1,5,99,99,u,0.582825,1,4,1,0,1,0,1,,,,,,,
,,,,,,,,,,,,,,,,,,,,1,4,2021-01-11_00h44.10.845,CL_C2S3,2020.1.3,Win32,60,,,,,i,1,0.817465,1,media/dfnb.png,2,"[-1,1,-1]",4,1,Symb,i,RT,0,0,2,1,5,99,99,i,0.817465,1,4,2,0,2,0,1,,,,,,,
,,,,,,,,,,,,,,,,,,,,1,4,2021-01-11_00h44.10.845,CL_C2S3,2020.1.3,Win32,60,,,,,h,1,0.70953,0,media/dcnb.png,2,"[-1,1,-1]",3,0,Symb,h,RT,0,0,3,1,5,99,99,h,0.70953,1,4,3,0,3,0,1,,,,,,,
,,,,,,,,,,,,,,,,,,,,1,4,2021-01-11_00h44.10.845,CL_C2S3,2020.1.3,Win32,60,,,,,u,1,0.55226,0,media/dcnb.png,1,"[1,-1,-1]",0,0,Symb,u,RT,0,0,4,1,5,99,99,u,0.55226,1,4,4,0,4,0,1,,,,,,,
,,,,,,,,,,,,,,,,,,,,1,4,2021-01-11_00h44.10.845,CL_C2S3,2020.1.3,Win32,60,,,,,h,1,0.671525,1,media/dfnb.png,1,"[1,-1,-1]",1,1,Symb,h,RT,0,0,5,1,5,99,99,h,0.671525,1,4,5,0,5,0,1,,,,,,,
,,,,,,,,,,,,,,,,,,,,1,4,2021-01-11_00h44.10.845,CL_C2S3,2020.1.3,Win32,60,,,,,i,1,0.42588,2,media/dknb.png,1,"[1,-1,-1]",2,0,Symb,i,RT,0,0,6,1,5,99,99,i,0.42588,1,4,6,0,6,0,1,,,,,,,
,,,,,,,,,,,,,,,,,,,,1,4,2021-01-11_00h44.10.845,CL_C2S3,2020.1.3,Win32,60,,,,,i,1,0.722535,1,media/dfnb.png,2,"[-1,1,-1]",4,1,Symb,i,RT,0,0,7,1,5,99,99,i,0.722535,1,4,7,0,7,0,1,,,,,,,
,,,,,,,,,,,,,,,,,,,,1,4,2021-01-11_00h44.10.845,CL_C2S3,2020.1.3,Win32,60,,,,,h,1,0.552855,1,media/dfnb.png,1,"[1,-1,-1]",1,1,Symb,h,RT,0,0,8,1,5,99,99,h,0.552855,1,4,8,0,8,0,1,,,,,,,
,,,,,,,,,,,,,,,,,,,,1,4,2021-01-11_00h44.10.845,CL_C2S3,2020.1.3,Win32,60,,,,,u,1,0.652215,0,media/dcnb.png,1,"[1,-1,-1]",0,0,Symb,u,RT,0,0,9,1,5,99,99,u,0.652215,1,4,9,0,9,0,1,,,,,,,
,,,,,,,,,,,,,,,,,,,,1,4,2021-01-11_00h44.10.845,CL_C2S3,2020.1.3,Win32,60,,,,,u,1,0.453285,2,media/dknb.png,2,"[-1,1,-1]",5,0,Symb,u,RT,0,0,10,1,5,99,99,u,0.453285,1,4,10,0,10,0,1,,,,,,,
,,,,,,,,,,,,,,,,,,,,1,4,2021-01-11_00h44.10.845,CL_C2S3,2020.1.3,Win32,60,,,,,i,1,0.38251,2,media/dknb.png,1,"[1,-1,-1]",2,0,Symb,i,RT,0,0,11,1,5,99,99,i,0.38251,1,4,11,0,11,0,1,,,,,,,
,,,,,,,,,,,,,,,,,,,,1,4,2021-01-11_00h44.10.845,CL_C2S3,2020.1.3,Win32,60,,,,,i,0,0.42165,2,media/dknb.png,2,"[-1,1,-1]",5,0,Symb,u,RT,0,0,12,1,5,99,99,i,0.42165,0,4,12,0,12,0,1,,,,,,,
,,,,,,,,,,,,,,,,,,,,1,4,2021-01-11_00h44.10.845,CL_C2S3,2020.1.3,Win32,60,,,,,h,1,1.06421,0,media/dcnb.png,2,"[-1,1,-1]",3,0,Symb,h,RT,0,0,13,1,5,99,99,h,1.06421,1,4,13,0,13,0,1,,,,,,,
,,,,,,,,,,,,,,,,,,,,1,4,2021-01-11_00h44.10.845,CL_C2S3,2020.1.3,Win32,60,,,,,i,1,2.135245,1,media/dfnb.png,2,"[-1,1,-1]",4,1,Symb,i,RT,0,0,14,1,5,99,99,i,2.135245,1,4,14,0,14,0,1,,,,,,,
,,,,,,,,,,,,,,,,,,,,1,4,2021-01-11_00h44.10.845,CL_C2S3,2020.1.3,Win32,60,,,,,h,1,0.76837,1,media/dfnb.png,1,"[1,-1,-1]",1,1,Symb,h,RT,0,0,15,1,5,99,99,h,0.76837,1,4,15,0,15,0,1,,,,,,,
,,,,,,,,,,,,,,,,,,,,1,4,2021-01-11_00h44.10.845,CL_C2S3,2020.1.3,Win32,60,,,,,h,1,0.52425,1,media/dfnb.png,1,"[1,-1,-1]",1,1,Symb,h,RT,0,0,16,1,5,99,99,h,0.52425,1,4,16,0,16,0,1,,,,,,,
,,,,,,,,,,,,,,,,,,,,1,4,2021-01-11_00h44.10.845,CL_C2S3,2020.1.3,Win32,60,,,,,i,1,0.98387,1,media/dfnb.png,2,"[-1,1,-1]",4,1,Symb,i,RT,0,0,17,1,5,99,99,i,0.98387,1,4,17,0,17,0,1,,,,,,,
,,,,,,,,,,,,,,,,,,,,1,4,2021-01-11_00h44.10.845,CL_C2S3,2020.1.3,Win32,60,,,,,u,1,0.86413,0,media/dcnb.png,1,"[1,-1,-1]",0,0,Symb,u,RT,0,0,18,1,5,99,99,u,0.86413,1,4,18,0,18,0,1,,,,,,,
,,,,,,,,,,,,,,,,,,,,1,4,2021-01-11_00h44.10.845,CL_C2S3,2020.1.3,Win32,60,,,,,i,1,1.27732,2,media/dknb.png,1,"[1,-1,-1]",2,0,Symb,i,RT,0,0,19,1,5,99,99,i,1.27732,1,4,19,0,19,0,1,,,,,,,
,,,,,,,,,,,,,,,,,,,,1,4,2021-01-11_00h44.10.845,CL_C2S3,2020.1.3,Win32,60,,,,,u,1,0.55275,2,media/dknb.png,2,"[-1,1,-1]",5,0,Symb,u,RT,0,0,20,1,5,99,99,u,0.55275,1,4,20,0,20,0,1,,,,,,,
,,,,,,,,,,,,,,,,,,,,1,4,2021-01-11_00h44.10.845,CL_C2S3,2020.1.3,Win32,60,,,,,i,1,0.58744,2,media/dknb.png,1,"[1,-1,-1]",2,0,Symb,i,RT,0,0,21,1,5,99,99,i,0.58744,1,4,21,0,21,0,1,,,,,,,
,,,,,,,,,,,,,,,,,,,,1,4,2021-01-11_00h44.10.845,CL_C2S3,2020.1.3,Win32,60,,,,,h,1,0.698095,0,media/dcnb.png,2,"[-1,1,-1]",3,0,Symb,h,RT,0,0,22,1,5,99,99,h,0.698095,1,4,22,0,22,0,1,,,,,,,
,,,,,,,,,,,,,,,,,,,,1,4,2021-01-11_00h44.10.845,CL_C2S3,2020.1.3,Win32,60,,,,,u,1,0.519185,0,media/dcnb.png,1,"[1,-1,-1]",0,0,Symb,u,RT,0,0,23,1,5,99,99,u,0.519185,1,4,23,0,23,0,1,,,,,,,
,,,,,,,,,,,,,,,,,,,,1,4,2021-01-11_00h44.10.845,CL_C2S3,2020.1.3,Win32,60,,,,,i,1,0.550775,1,media/dfnb.png,2,"[-1,1,-1]",4,1,Symb,i,RT,0,0,24,1,5,99,99,i,0.550775,1,4,24,0,24,0,1,,,,,,,
,,,,,,,,,,,,,,,,,,,,1,4,2021-01-11_00h44.10.845,CL_C2S3,2020.1.3,Win32,60,,,,,u,0,0.79093,0,media/dcnb.png,2,"[-1,1,-1]",3,0,Symb,h,RT,0,0,25,1,5,99,99,u,0.79093,0,4,25,0,25,0,1,,,,,,,
,,,,,,,,,,,,,,,,,,,,1,4,2021-01-11_00h44.10.845,CL_C2S3,2020.1.3,Win32,60,,,,,h,1,0.69009,1,media/dfnb.png,1,"[1,-1,-1]",1,1,Symb,h,RT,0,0,26,1,5,99,99,h,0.69009,1,4,26,0,26,0,1,,,,,,,
,,,,,,,,,,,,,,,,,,,,1,4,2021-01-11_00h44.10.845,CL_C2S3,2020.1.3,Win32,60,,,,,i,1,0.626845,2,media/dknb.png,1,"[1,-1,-1]",2,0,Symb,i,RT,0,0,27,1,5,99,99,i,0.626845,1,4,27,0,27,0,1,,,,,,,
,,,,,,,,,,,,,,,,,,,,1,4,2021-01-11_00h44.10.845,CL_C2S3,2020.1.3,Win32,60,,,,,u,1,0.507025,2,media/dknb.png,2,"[-1,1,-1]",5,0,Symb,u,RT,0,0,28,1,5,99,99,u,0.507025,1,4,28,0,28,0,1,,,,,,,
,,,,,,,,,,,,,,,,,,,,1,4,2021-01-11_00h44.10.845,CL_C2S3,2020.1.3,Win32,60,,,,,h,0,0.66307,0,media/dcnb.png,1,"[1,-1,-1]",0,0,Symb,u,RT,0,0,29,1,5,99,99,h,0.66307,0,4,29,0,29,0,1,,,,,,,
,,,,,,,,,,,,,,,,,,,,1,4,2021-01-11_00h44.10.845,CL_C2S3,2020.1.3,Win32,60,,,,,h,1,0.49063,0,media/dcnb.png,2,"[-1,1,-1]",3,0,Symb,h,RT,0,0,30,1,5,99,99,h,0.49063,1,4,30,0,30,0,1,,,,,,,
,,,,,,,,,,,,,,,,,,,,1,4,2021-01-11_00h44.10.845,CL_C2S3,2020.1.3,Win32,60,,,,,u,1,0.56066,0,media/dcnb.png,1,"[1,-1,-1]",0,0,Symb,u,RT,0,0,31,1,5,99,99,u,0.56066,1,4,31,0,31,0,1,,,,,,,
,,,,,,,,,,,,,,,,,,,,1,4,2021-01-11_00h44.10.845,CL_C2S3,2020.1.3,Win32,60,,,,,i,1,0.659575,1,media/dfnb.png,2,"[-1,1,-1]",4,1,Symb,i,RT,0,0,32,1,5,99,99,i,0.659575,1,4,32,0,32,0,1,,,,,,,
,,,,,,,,,,,,,,,,,,,,1,4,2021-01-11_00h44.10.845,CL_C2S3,2020.1.3,Win32,60,,,,,h,1,2.532425,0,media/dcnb.png,2,"[-1,1,-1]",3,0,Symb,h,RT,0,0,33,1,5,99,99,h,2.532425,1,4,33,0,33,0,1,,,,,,,
,,,,,,,,,,,,,,,,,,,,1,4,2021-01-11_00h44.10.845,CL_C2S3,2020.1.3,Win32,60,,,,,h,1,0.635705,1,media/dfnb.png,1,"[1,-1,-1]",1,1,Symb,h,RT,0,0,34,1,5,99,99,h,0.635705,1,4,34,0,34,0,1,,,,,,,
,,,,,,,,,,,,,,,,,,,,1,4,2021-01-11_00h44.10.845,CL_C2S3,2020.1.3,Win32,60,,,,,h,1,0.54276,1,media/dfnb.png,1,"[1,-1,-1]",1,1,Symb,h,RT,0,0,35,1,5,99,99,h,0.54276,1,4,35,0,35,0,1,,,,,,,
,,,,,,,,,,,,,,,,,,,,1,4,2021-01-11_00h44.10.845,CL_C2S3,2020.1.3,Win32,60,,,,,i,1,0.619205,2,media/dknb.png,1,"[1,-1,-1]",2,0,Symb,i,RT,0,0,36,1,5,99,99,i,0.619205,1,4,36,0,36,0,1,,,,,,,
,,,,,,,,,,,,,,,,,,,,1,4,2021-01-11_00h44.10.845,CL_C2S3,2020.1.3,Win32,60,,,,,u,1,1.13195,0,media/dcnb.png,1,"[1,-1,-1]",0,0,Symb,u,RT,0,0,37,1,5,99,99,u,1.13195,1,4,37,0,37,0,1,,,,,,,
,,,,,,,,,,,,,,,,,,,,1,4,2021-01-11_00h44.10.845,CL_C2S3,2020.1.3,Win32,60,,,,,i,1,1.435225,2,media/dknb.png,1,"[1,-1,-1]",2,0,Symb,i,RT,0,0,38,1,5,99,99,i,1.435225,1,4,38,0,38,0,1,,,,,,,
,,,,,,,,,,,,,,,,,,,,1,4,2021-01-11_00h44.10.845,CL_C2S3,2020.1.3,Win32,60,,,,,i,1,2.24262,1,media/dfnb.png,2,"[-1,1,-1]",4,1,Symb,i,RT,0,0,39,1,5,99,99,i,2.24262,1,4,39,0,39,0,1,,,,,,,
,,,,,,,,,,,,,,,,,,,,1,4,2021-01-11_00h44.10.845,CL_C2S3,2020.1.3,Win32,60,,,,,u,1,0.5316,2,media/dknb.png,2,"[-1,1,-1]",5,0,Symb,u,RT,0,0,40,1,5,99,99,u,0.5316,1,4,40,0,40,0,1,,,,,,,
,,,,,,,,,,,,,,,,,,,,1,4,2021-01-11_00h44.10.845,CL_C2S3,2020.1.3,Win32,60,,,,,u,1,0.44428,2,media/dknb.png,2,"[-1,1,-1]",5,0,Symb,u,RT,0,0,41,1,5,99,99,u,0.44428,1,4,41,0,41,0,1,,,,,,,
,,,,,,,,,,,,,,,,,,,,1,4,2021-01-11_00h44.10.845,CL_C2S3,2020.1.3,Win32,60,,,,,i,1,0.50849,2,media/dknb.png,1,"[1,-1,-1]",2,0,Symb,i,RT,0,0,42,1,5,99,99,i,0.50849,1,4,42,0,42,0,1,,,,,,,
,,,,,,,,,,,,,,,,,,,,1,4,2021-01-11_00h44.10.845,CL_C2S3,2020.1.3,Win32,60,,,,,h,0,0.5464,1,media/dfnb.png,2,"[-1,1,-1]",4,1,Symb,i,RT,0,0,43,1,5,99,99,h,0.5464,0,4,43,0,43,0,1,,,,,,,
,,,,,,,,,,,,,,,,,,,,1,4,2021-01-11_00h44.10.845,CL_C2S3,2020.1.3,Win32,60,,,,,u,1,0.543385,0,media/dcnb.png,1,"[1,-1,-1]",0,0,Symb,u,RT,0,0,44,1,5,99,99,u,0.543385,1,4,44,0,44,0,1,,,,,,,
,,,,,,,,,,,,,,,,,,,,1,4,2021-01-11_00h44.10.845,CL_C2S3,2020.1.3,Win32,60,,,,,h,1,0.57464,0,media/dcnb.png,2,"[-1,1,-1]",3,0,Symb,h,RT,0,0,45,1,5,99,99,h,0.57464,1,4,45,0,45,0,1,,,,,,,
