Ctx_Color_List,stim_key_map_ctx1,stim_key_map_ctx2,stim_key_remap_ctx1,stim_key_remap_ctx2,Import_File.thisRepN,Import_File.thisTrialN,Import_File.thisN,Import_File.thisIndex,Import_File.ran,Stim,Ctx_Color,Key,KeyNum,imStim,X_Pos,Y_Pos,Hand,Check,Cross,participant,session,date,expName,psychopyVersion,OS,frameRate,Instr_RT_Old_Press.keys,Instr_RT_Old_Press.rt,Instr_Block_Num_Press.keys,Instr_Block_Num_Press.rt,RT_Press.keys,RT_Press.corr,RT_Press.rt,Symbol,Shape,Ctx,Color,Stim_Num,Key_Num,Stim_Type,True_Key,Block_Type,Remap,Repeat_Count,Trial_Count,Grp,Block_Num,Prep_Time,Ctx_Prep_Time,Actual_Press,RT,Correct,Session,RT_Old_Iter.thisRepN,RT_Old_Iter.thisTrialN,RT_Old_Iter.thisN,RT_Old_Iter.thisIndex,RT_Old_Iter.ran,RT_Old_Block.thisRepN,RT_Old_Block.thisTrialN,RT_Old_Block.thisN,RT_Old_Block.thisIndex,RT_Old_Block.ran,Instr_End_Exp_Key.keys,Instr_End_Exp_Key.rt
"[[1,-1,-1],[-1,1,-1]]","[0,2,1]","[0,1,2]","[0,1,2]","[0,2,1]",0,0,0,0,1,0,"[1, -1, -1]",h,0,media/dcnb.png,-0.038,0.075,media/hand.png,media/check.png,media/cross.png,3,2,2021-01-09_16h26.54.746,CL_C2S3,2020.1.3,Win32,60,,,,,,,,,,,,,,,,,,,,,,,,,,,,,,,,,,,,,,,
"[[1,-1,-1],[-1,1,-1],[1,-1,-1],[-1,1,-1]]","[0,2,1]","[0,1,2]","[0,1,2]","[0,2,1]",0,1,1,1,1,1,"[-1, 1, -1]",u,1,media/dfnb.png,0.014,0.1,,,,3,2,2021-01-09_16h26.54.746,CL_C2S3,2020.1.3,Win32,60,,,,,,,,,,,,,,,,,,,,,,,,,,,,,,,,,,,,,,,
"[[1,-1,-1],[-1,1,-1],[1,-1,-1],[-1,1,-1],[1,-1,-1],[-1,1,-1]]","[0,2,1]","[0,1,2]","[0,1,2]","[0,2,1]",0,2,2,2,1,2,,i,0,media/dknb.png,0.057,0.08,,,,3,2,2021-01-09_16h26.54.746,CL_C2S3,2020.1.3,Win32,60,,,,,,,,,,,,,,,,,,,,,,,,,,,,,,,,,,,,,,,
,,,,,,,,,,,,,,,,,,,,3,2,2021-01-09_16h26.54.746,CL_C2S3,2020.1.3,Win32,60,h,13.066865,h,0.6357,i,1,0.88256,1,media/dfnb.png,1,"[1,-1,-1]",1,1,Symb,i,RT,0,0,0,2,1,99,99,i,0.88256,1,2,0,0,0,0,1,,,,,,,
,,,,,,,,,,,,,,,,,,,,3,2,2021-01-09_16h26.54.746,CL_C2S3,2020.1.3,Win32,60,,,,,i,1,0.897785,2,media/dknb.png,2,"[-1,1,-1]",5,0,Symb,i,RT,0,0,1,2,1,99,99,i,0.897785,1,2,1,0,1,0,1,,,,,,,
,,,,,,,,,,,,,,,,,,,,3,2,2021-01-09_16h26.54.746,CL_C2S3,2020.1.3,Win32,60,,,,,u,1,0.64332,2,media/dknb.png,1,"[1,-1,-1]",2,0,Symb,u,RT,0,0,2,2,1,99,99,u,0.64332,1,2,2,0,2,0,1,,,,,,,
,,,,,,,,,,,,,,,,,,,,3,2,2021-01-09_16h26.54.746,CL_C2S3,2020.1.3,Win32,60,,,,,i,1,0.55135,1,media/dfnb.png,1,"[1,-1,-1]",1,1,Symb,i,RT,0,0,3,2,1,99,99,i,0.55135,1,2,3,0,3,0,1,,,,,,,
,,,,,,,,,,,,,,,,,,,,3,2,2021-01-09_16h26.54.746,CL_C2S3,2020.1.3,Win32,60,,,,,i,1,0.834665,2,media/dknb.png,2,"[-1,1,-1]",5,0,Symb,i,RT,0,0,4,2,1,99,99,i,0.834665,1,2,4,0,4,0,1,,,,,,,
,,,,,,,,,,,,,,,,,,,,3,2,2021-01-09_16h26.54.746,CL_C2S3,2020.1.3,Win32,60,,,,,u,1,0.61875,2,media/dknb.png,1,"[1,-1,-1]",2,0,Symb,u,RT,0,0,5,2,1,99,99,u,0.61875,1,2,5,0,5,0,1,,,,,,,
,,,,,,,,,,,,,,,,,,,,3,2,2021-01-09_16h26.54.746,CL_C2S3,2020.1.3,Win32,60,,,,,u,1,0.650065,1,media/dfnb.png,2,"[-1,1,-1]",4,1,Symb,u,RT,0,0,6,2,1,99,99,u,0.650065,1,2,6,0,6,0,1,,,,,,,
,,,,,,,,,,,,,,,,,,,,3,2,2021-01-09_16h26.54.746,CL_C2S3,2020.1.3,Win32,60,,,,,h,1,0.574615,0,media/dcnb.png,1,"[1,-1,-1]",0,0,Symb,h,RT,0,0,7,2,1,99,99,h,0.574615,1,2,7,0,7,0,1,,,,,,,
,,,,,,,,,,,,,,,,,,,,3,2,2021-01-09_16h26.54.746,CL_C2S3,2020.1.3,Win32,60,,,,,h,1,0.38421,0,media/dcnb.png,2,"[-1,1,-1]",3,0,Symb,h,RT,0,0,8,2,1,99,99,h,0.38421,1,2,8,0,8,0,1,,,,,,,
,,,,,,,,,,,,,,,,,,,,3,2,2021-01-09_16h26.54.746,CL_C2S3,2020.1.3,Win32,60,,,,,u,1,0.808245,1,media/dfnb.png,2,"[-1,1,-1]",4,1,Symb,u,RT,0,0,9,2,1,99,99,u,0.808245,1,2,9,0,9,0,1,,,,,,,
,,,,,,,,,,,,,,,,,,,,3,2,2021-01-09_16h26.54.746,CL_C2S3,2020.1.3,Win32,60,,,,,h,1,0.5627,0,media/dcnb.png,2,"[-1,1,-1]",3,0,Symb,h,RT,0,0,10,2,1,99,99,h,0.5627,1,2,10,0,10,0,1,,,,,,,
,,,,,,,,,,,,,,,,,,,,3,2,2021-01-09_16h26.54.746,CL_C2S3,2020.1.3,Win32,60,,,,,h,1,0.4513,0,media/dcnb.png,1,"[1,-1,-1]",0,0,Symb,h,RT,0,0,11,2,1,99,99,h,0.4513,1,2,11,0,11,0,1,,,,,,,
,,,,,,,,,,,,,,,,,,,,3,2,2021-01-09_16h26.54.746,CL_C2S3,2020.1.3,Win32,60,,,,,u,1,0.520125,1,media/dfnb.png,2,"[-1,1,-1]",4,1,Symb,u,RT,0,0,12,2,1,99,99,u,0.520125,1,2,12,0,12,0,1,,,,,,,
,,,,,,,,,,,,,,,,,,,,3,2,2021-01-09_16h26.54.746,CL_C2S3,2020.1.3,Win32,60,,,,,i,1,0.60341,1,media/dfnb.png,1,"[1,-1,-1]",1,1,Symb,i,RT,0,0,13,2,1,99,99,i,0.60341,1,2,13,0,13,0,1,,,,,,,
,,,,,,,,,,,,,,,,,,,,3,2,2021-01-09_16h26.54.746,CL_C2S3,2020.1.3,Win32,60,,,,,u,1,0.73666,2,media/dknb.png,1,"[1,-1,-1]",2,0,Symb,u,RT,0,0,14,2,1,99,99,u,0.73666,1,2,14,0,14,0,1,,,,,,,
,,,,,,,,,,,,,,,,,,,,3,2,2021-01-09_16h26.54.746,CL_C2S3,2020.1.3,Win32,60,,,,,u,1,0.652315,1,media/dfnb.png,2,"[-1,1,-1]",4,1,Symb,u,RT,0,0,15,2,1,99,99,u,0.652315,1,2,15,0,15,0,1,,,,,,,
,,,,,,,,,,,,,,,,,,,,3,2,2021-01-09_16h26.54.746,CL_C2S3,2020.1.3,Win32,60,,,,,i,1,0.55343,2,media/dknb.png,2,"[-1,1,-1]",5,0,Symb,i,RT,0,0,16,2,1,99,99,i,0.55343,1,2,16,0,16,0,1,,,,,,,
,,,,,,,,,,,,,,,,,,,,3,2,2021-01-09_16h26.54.746,CL_C2S3,2020.1.3,Win32,60,,,,,h,1,0.473675,0,media/dcnb.png,1,"[1,-1,-1]",0,0,Symb,h,RT,0,0,17,2,1,99,99,h,0.473675,1,2,17,0,17,0,1,,,,,,,
,,,,,,,,,,,,,,,,,,,,3,2,2021-01-09_16h26.54.746,CL_C2S3,2020.1.3,Win32,60,,,,,i,1,0.75192,2,media/dknb.png,2,"[-1,1,-1]",5,0,Symb,i,RT,0,0,18,2,1,99,99,i,0.75192,1,2,18,0,18,0,1,,,,,,,
,,,,,,,,,,,,,,,,,,,,3,2,2021-01-09_16h26.54.746,CL_C2S3,2020.1.3,Win32,60,,,,,u,1,0.58739,2,media/dknb.png,1,"[1,-1,-1]",2,0,Symb,u,RT,0,0,19,2,1,99,99,u,0.58739,1,2,19,0,19,0,1,,,,,,,
,,,,,,,,,,,,,,,,,,,,3,2,2021-01-09_16h26.54.746,CL_C2S3,2020.1.3,Win32,60,,,,,h,1,0.55399,0,media/dcnb.png,2,"[-1,1,-1]",3,0,Symb,h,RT,0,0,20,2,1,99,99,h,0.55399,1,2,20,0,20,0,1,,,,,,,
,,,,,,,,,,,,,,,,,,,,3,2,2021-01-09_16h26.54.746,CL_C2S3,2020.1.3,Win32,60,,,,,i,1,0.684545,1,media/dfnb.png,1,"[1,-1,-1]",1,1,Symb,i,RT,0,0,21,2,1,99,99,i,0.684545,1,2,21,0,21,0,1,,,,,,,
,,,,,,,,,,,,,,,,,,,,3,2,2021-01-09_16h26.54.746,CL_C2S3,2020.1.3,Win32,60,,,,,h,1,0.636885,0,media/dcnb.png,1,"[1,-1,-1]",0,0,Symb,h,RT,0,0,22,2,1,99,99,h,0.636885,1,2,22,0,22,0,1,,,,,,,
,,,,,,,,,,,,,,,,,,,,3,2,2021-01-09_16h26.54.746,CL_C2S3,2020.1.3,Win32,60,,,,,h,1,0.49351,0,media/dcnb.png,2,"[-1,1,-1]",3,0,Symb,h,RT,0,0,23,2,1,99,99,h,0.49351,1,2,23,0,23,0,1,,,,,,,
,,,,,,,,,,,,,,,,,,,,3,2,2021-01-09_16h26.54.746,CL_C2S3,2020.1.3,Win32,60,,,,,u,1,0.50351,1,media/dfnb.png,2,"[-1,1,-1]",4,1,Symb,u,RT,0,0,24,2,1,99,99,u,0.50351,1,2,24,0,24,0,1,,,,,,,
,,,,,,,,,,,,,,,,,,,,3,2,2021-01-09_16h26.54.746,CL_C2S3,2020.1.3,Win32,60,,,,,i,1,0.628535,1,media/dfnb.png,1,"[1,-1,-1]",1,1,Symb,i,RT,0,0,25,2,1,99,99,i,0.628535,1,2,25,0,25,0,1,,,,,,,
,,,,,,,,,,,,,,,,,,,,3,2,2021-01-09_16h26.54.746,CL_C2S3,2020.1.3,Win32,60,,,,,h,1,0.46826,0,media/dcnb.png,1,"[1,-1,-1]",0,0,Symb,h,RT,0,0,26,2,1,99,99,h,0.46826,1,2,26,0,26,0,1,,,,,,,
,,,,,,,,,,,,,,,,,,,,3,2,2021-01-09_16h26.54.746,CL_C2S3,2020.1.3,Win32,60,,,,,u,1,0.63703,2,media/dknb.png,1,"[1,-1,-1]",2,0,Symb,u,RT,0,0,27,2,1,99,99,u,0.63703,1,2,27,0,27,0,1,,,,,,,
,,,,,,,,,,,,,,,,,,,,3,2,2021-01-09_16h26.54.746,CL_C2S3,2020.1.3,Win32,60,,,,,i,1,0.54868,2,media/dknb.png,2,"[-1,1,-1]",5,0,Symb,i,RT,0,0,28,2,1,99,99,i,0.54868,1,2,28,0,28,0,1,,,,,,,
,,,,,,,,,,,,,,,,,,,,3,2,2021-01-09_16h26.54.746,CL_C2S3,2020.1.3,Win32,60,,,,,h,1,0.502835,0,media/dcnb.png,2,"[-1,1,-1]",3,0,Symb,h,RT,0,0,29,2,1,99,99,h,0.502835,1,2,29,0,29,0,1,,,,,,,
,,,,,,,,,,,,,,,,,,,,3,2,2021-01-09_16h26.54.746,CL_C2S3,2020.1.3,Win32,60,,,,,u,1,0.61955,2,media/dknb.png,1,"[1,-1,-1]",2,0,Symb,u,RT,0,0,30,2,1,99,99,u,0.61955,1,2,30,0,30,0,1,,,,,,,
,,,,,,,,,,,,,,,,,,,,3,2,2021-01-09_16h26.54.746,CL_C2S3,2020.1.3,Win32,60,,,,,i,1,0.52154,2,media/dknb.png,2,"[-1,1,-1]",5,0,Symb,i,RT,0,0,31,2,1,99,99,i,0.52154,1,2,31,0,31,0,1,,,,,,,
,,,,,,,,,,,,,,,,,,,,3,2,2021-01-09_16h26.54.746,CL_C2S3,2020.1.3,Win32,60,,,,,h,1,0.470305,0,media/dcnb.png,1,"[1,-1,-1]",0,0,Symb,h,RT,0,0,32,2,1,99,99,h,0.470305,1,2,32,0,32,0,1,,,,,,,
,,,,,,,,,,,,,,,,,,,,3,2,2021-01-09_16h26.54.746,CL_C2S3,2020.1.3,Win32,60,,,,,i,1,0.65152,2,media/dknb.png,2,"[-1,1,-1]",5,0,Symb,i,RT,0,0,33,2,1,99,99,i,0.65152,1,2,33,0,33,0,1,,,,,,,
,,,,,,,,,,,,,,,,,,,,3,2,2021-01-09_16h26.54.746,CL_C2S3,2020.1.3,Win32,60,,,,,u,1,0.40503,2,media/dknb.png,1,"[1,-1,-1]",2,0,Symb,u,RT,0,0,34,2,1,99,99,u,0.40503,1,2,34,0,34,0,1,,,,,,,
,,,,,,,,,,,,,,,,,,,,3,2,2021-01-09_16h26.54.746,CL_C2S3,2020.1.3,Win32,60,,,,,i,1,0.65436,1,media/dfnb.png,1,"[1,-1,-1]",1,1,Symb,i,RT,0,0,35,2,1,99,99,i,0.65436,1,2,35,0,35,0,1,,,,,,,
,,,,,,,,,,,,,,,,,,,,3,2,2021-01-09_16h26.54.746,CL_C2S3,2020.1.3,Win32,60,,,,,h,1,0.617715,0,media/dcnb.png,2,"[-1,1,-1]",3,0,Symb,h,RT,0,0,36,2,1,99,99,h,0.617715,1,2,36,0,36,0,1,,,,,,,
,,,,,,,,,,,,,,,,,,,,3,2,2021-01-09_16h26.54.746,CL_C2S3,2020.1.3,Win32,60,,,,,h,1,0.46781,0,media/dcnb.png,2,"[-1,1,-1]",3,0,Symb,h,RT,0,0,37,2,1,99,99,h,0.46781,1,2,37,0,37,0,1,,,,,,,
,,,,,,,,,,,,,,,,,,,,3,2,2021-01-09_16h26.54.746,CL_C2S3,2020.1.3,Win32,60,,,,,u,1,0.487465,1,media/dfnb.png,2,"[-1,1,-1]",4,1,Symb,u,RT,0,0,38,2,1,99,99,u,0.487465,1,2,38,0,38,0,1,,,,,,,
,,,,,,,,,,,,,,,,,,,,3,2,2021-01-09_16h26.54.746,CL_C2S3,2020.1.3,Win32,60,,,,,h,1,0.538345,0,media/dcnb.png,1,"[1,-1,-1]",0,0,Symb,h,RT,0,0,39,2,1,99,99,h,0.538345,1,2,39,0,39,0,1,,,,,,,
,,,,,,,,,,,,,,,,,,,,3,2,2021-01-09_16h26.54.746,CL_C2S3,2020.1.3,Win32,60,,,,,i,1,0.584365,1,media/dfnb.png,1,"[1,-1,-1]",1,1,Symb,i,RT,0,0,40,2,1,99,99,i,0.584365,1,2,40,0,40,0,1,,,,,,,
,,,,,,,,,,,,,,,,,,,,3,2,2021-01-09_16h26.54.746,CL_C2S3,2020.1.3,Win32,60,,,,,u,1,0.5685,1,media/dfnb.png,2,"[-1,1,-1]",4,1,Symb,u,RT,0,0,41,2,1,99,99,u,0.5685,1,2,41,0,41,0,1,,,,,,,
,,,,,,,,,,,,,,,,,,,,3,2,2021-01-09_16h26.54.746,CL_C2S3,2020.1.3,Win32,60,,,,,u,1,0.405015,1,media/dfnb.png,2,"[-1,1,-1]",4,1,Symb,u,RT,0,0,42,2,1,99,99,u,0.405015,1,2,42,0,42,0,1,,,,,,,
,,,,,,,,,,,,,,,,,,,,3,2,2021-01-09_16h26.54.746,CL_C2S3,2020.1.3,Win32,60,,,,,h,1,0.592335,0,media/dcnb.png,2,"[-1,1,-1]",3,0,Symb,h,RT,0,0,43,2,1,99,99,h,0.592335,1,2,43,0,43,0,1,,,,,,,
,,,,,,,,,,,,,,,,,,,,3,2,2021-01-09_16h26.54.746,CL_C2S3,2020.1.3,Win32,60,,,,,h,1,0.402945,0,media/dcnb.png,1,"[1,-1,-1]",0,0,Symb,h,RT,0,0,44,2,1,99,99,h,0.402945,1,2,44,0,44,0,1,,,,,,,
,,,,,,,,,,,,,,,,,,,,3,2,2021-01-09_16h26.54.746,CL_C2S3,2020.1.3,Win32,60,,,,,i,1,0.65535,2,media/dknb.png,2,"[-1,1,-1]",5,0,Symb,i,RT,0,0,45,2,1,99,99,i,0.65535,1,2,45,0,45,0,1,,,,,,,
,,,,,,,,,,,,,,,,,,,,3,2,2021-01-09_16h26.54.746,CL_C2S3,2020.1.3,Win32,60,,,,,u,1,0.451205,1,media/dfnb.png,2,"[-1,1,-1]",4,1,Symb,u,RT,0,0,46,2,1,99,99,u,0.451205,1,2,46,0,46,0,1,,,,,,,
,,,,,,,,,,,,,,,,,,,,3,2,2021-01-09_16h26.54.746,CL_C2S3,2020.1.3,Win32,60,,,,,h,1,0.504575,0,media/dcnb.png,2,"[-1,1,-1]",3,0,Symb,h,RT,0,0,47,2,1,99,99,h,0.504575,1,2,47,0,47,0,1,,,,,,,
,,,,,,,,,,,,,,,,,,,,3,2,2021-01-09_16h26.54.746,CL_C2S3,2020.1.3,Win32,60,,,,,i,0,0.58724,2,media/dknb.png,1,"[1,-1,-1]",2,0,Symb,u,RT,0,0,48,2,1,99,99,i,0.58724,0,2,48,0,48,0,1,,,,,,,
,,,,,,,,,,,,,,,,,,,,3,2,2021-01-09_16h26.54.746,CL_C2S3,2020.1.3,Win32,60,,,,,u,1,0.555715,2,media/dknb.png,1,"[1,-1,-1]",2,0,Symb,u,RT,0,0,49,2,1,99,99,u,0.555715,1,2,49,0,49,0,1,,,,,,,
,,,,,,,,,,,,,,,,,,,,3,2,2021-01-09_16h26.54.746,CL_C2S3,2020.1.3,Win32,60,,,,,i,1,0.422155,2,media/dknb.png,2,"[-1,1,-1]",5,0,Symb,i,RT,0,0,50,2,1,99,99,i,0.422155,1,2,50,0,50,0,1,,,,,,,
,,,,,,,,,,,,,,,,,,,,3,2,2021-01-09_16h26.54.746,CL_C2S3,2020.1.3,Win32,60,,,,,h,1,0.486835,0,media/dcnb.png,1,"[1,-1,-1]",0,0,Symb,h,RT,0,0,51,2,1,99,99,h,0.486835,1,2,51,0,51,0,1,,,,,,,
,,,,,,,,,,,,,,,,,,,,3,2,2021-01-09_16h26.54.746,CL_C2S3,2020.1.3,Win32,60,,,,,u,0,0.820515,1,media/dfnb.png,1,"[1,-1,-1]",1,1,Symb,i,RT,0,0,52,2,1,99,99,u,0.820515,0,2,52,0,52,0,1,,,,,,,
,,,,,,,,,,,,,,,,,,,,3,2,2021-01-09_16h26.54.746,CL_C2S3,2020.1.3,Win32,60,,,,,i,1,0.665275,1,media/dfnb.png,1,"[1,-1,-1]",1,1,Symb,i,RT,0,0,53,2,1,99,99,i,0.665275,1,2,53,0,53,0,1,,,,,,,
,,,,,,,,,,,,,,,,,,,,3,2,2021-01-09_16h26.54.746,CL_C2S3,2020.1.3,Win32,60,,,,,u,1,0.61773,2,media/dknb.png,1,"[1,-1,-1]",2,0,Symb,u,RT,0,0,54,2,1,99,99,u,0.61773,1,2,54,0,54,0,1,,,,,,,
,,,,,,,,,,,,,,,,,,,,3,2,2021-01-09_16h26.54.746,CL_C2S3,2020.1.3,Win32,60,,,,,h,1,0.535645,0,media/dcnb.png,2,"[-1,1,-1]",3,0,Symb,h,RT,0,0,55,2,1,99,99,h,0.535645,1,2,55,0,55,0,1,,,,,,,
,,,,,,,,,,,,,,,,,,,,3,2,2021-01-09_16h26.54.746,CL_C2S3,2020.1.3,Win32,60,,,,,u,1,0.632785,1,media/dfnb.png,2,"[-1,1,-1]",4,1,Symb,u,RT,0,0,56,2,1,99,99,u,0.632785,1,2,56,0,56,0,1,,,,,,,
,,,,,,,,,,,,,,,,,,,,3,2,2021-01-09_16h26.54.746,CL_C2S3,2020.1.3,Win32,60,,,,,h,1,0.551525,0,media/dcnb.png,1,"[1,-1,-1]",0,0,Symb,h,RT,0,0,57,2,1,99,99,h,0.551525,1,2,57,0,57,0,1,,,,,,,
,,,,,,,,,,,,,,,,,,,,3,2,2021-01-09_16h26.54.746,CL_C2S3,2020.1.3,Win32,60,,,,,i,1,0.65094,2,media/dknb.png,2,"[-1,1,-1]",5,0,Symb,i,RT,0,0,58,2,1,99,99,i,0.65094,1,2,58,0,58,0,1,,,,,,,
,,,,,,,,,,,,,,,,,,,,3,2,2021-01-09_16h26.54.746,CL_C2S3,2020.1.3,Win32,60,,,,,i,1,0.951645,1,media/dfnb.png,1,"[1,-1,-1]",1,1,Symb,i,RT,0,0,59,2,1,99,99,i,0.951645,1,2,59,0,59,0,1,,,,,,,
,,,,,,,,,,,,,,,,,,,,3,2,2021-01-09_16h26.54.746,CL_C2S3,2020.1.3,Win32,60,,,,,u,1,0.405565,1,media/dfnb.png,2,"[-1,1,-1]",4,1,Symb,u,RT,0,0,60,2,1,99,99,u,0.405565,1,2,60,0,60,0,1,,,,,,,
,,,,,,,,,,,,,,,,,,,,3,2,2021-01-09_16h26.54.746,CL_C2S3,2020.1.3,Win32,60,,,,,h,1,0.518055,0,media/dcnb.png,1,"[1,-1,-1]",0,0,Symb,h,RT,0,0,61,2,1,99,99,h,0.518055,1,2,61,0,61,0,1,,,,,,,
,,,,,,,,,,,,,,,,,,,,3,2,2021-01-09_16h26.54.746,CL_C2S3,2020.1.3,Win32,60,,,,,h,1,0.43458,0,media/dcnb.png,1,"[1,-1,-1]",0,0,Symb,h,RT,0,0,62,2,1,99,99,h,0.43458,1,2,62,0,62,0,1,,,,,,,
,,,,,,,,,,,,,,,,,,,,3,2,2021-01-09_16h26.54.746,CL_C2S3,2020.1.3,Win32,60,,,,,h,1,0.554035,0,media/dcnb.png,2,"[-1,1,-1]",3,0,Symb,h,RT,0,0,63,2,1,99,99,h,0.554035,1,2,63,0,63,0,1,,,,,,,
,,,,,,,,,,,,,,,,,,,,3,2,2021-01-09_16h26.54.746,CL_C2S3,2020.1.3,Win32,60,,,,,u,1,1.698185,2,media/dknb.png,1,"[1,-1,-1]",2,0,Symb,u,RT,0,0,64,2,1,99,99,u,1.698185,1,2,64,0,64,0,1,,,,,,,
,,,,,,,,,,,,,,,,,,,,3,2,2021-01-09_16h26.54.746,CL_C2S3,2020.1.3,Win32,60,,,,,i,1,0.70107,1,media/dfnb.png,1,"[1,-1,-1]",1,1,Symb,i,RT,0,0,65,2,1,99,99,i,0.70107,1,2,65,0,65,0,1,,,,,,,
,,,,,,,,,,,,,,,,,,,,3,2,2021-01-09_16h26.54.746,CL_C2S3,2020.1.3,Win32,60,,,,,u,1,0.551025,2,media/dknb.png,1,"[1,-1,-1]",2,0,Symb,u,RT,0,0,66,2,1,99,99,u,0.551025,1,2,66,0,66,0,1,,,,,,,
,,,,,,,,,,,,,,,,,,,,3,2,2021-01-09_16h26.54.746,CL_C2S3,2020.1.3,Win32,60,,,,,i,1,0.420675,2,media/dknb.png,2,"[-1,1,-1]",5,0,Symb,i,RT,0,0,67,2,1,99,99,i,0.420675,1,2,67,0,67,0,1,,,,,,,
,,,,,,,,,,,,,,,,,,,,3,2,2021-01-09_16h26.54.746,CL_C2S3,2020.1.3,Win32,60,,,,,u,1,0.544345,1,media/dfnb.png,2,"[-1,1,-1]",4,1,Symb,u,RT,0,0,68,2,1,99,99,u,0.544345,1,2,68,0,68,0,1,,,,,,,
,,,,,,,,,,,,,,,,,,,,3,2,2021-01-09_16h26.54.746,CL_C2S3,2020.1.3,Win32,60,,,,,i,1,0.75199,2,media/dknb.png,2,"[-1,1,-1]",5,0,Symb,i,RT,0,0,69,2,1,99,99,i,0.75199,1,2,69,0,69,0,1,,,,,,,
,,,,,,,,,,,,,,,,,,,,3,2,2021-01-09_16h26.54.746,CL_C2S3,2020.1.3,Win32,60,,,,,h,1,0.45388,0,media/dcnb.png,2,"[-1,1,-1]",3,0,Symb,h,RT,0,0,70,2,1,99,99,h,0.45388,1,2,70,0,70,0,1,,,,,,,
,,,,,,,,,,,,,,,,,,,,3,2,2021-01-09_16h26.54.746,CL_C2S3,2020.1.3,Win32,60,,,,,u,0,0.635375,1,media/dfnb.png,1,"[1,-1,-1]",1,1,Symb,i,RT,0,0,71,2,1,99,99,u,0.635375,0,2,71,0,71,0,1,,,,,,,
,,,,,,,,,,,,,,,,,,,,3,2,2021-01-09_16h26.54.746,CL_C2S3,2020.1.3,Win32,60,,,,,i,1,0.602105,1,media/dfnb.png,1,"[1,-1,-1]",1,1,Symb,i,RT,0,0,72,2,1,99,99,i,0.602105,1,2,72,0,72,0,1,,,,,,,
,,,,,,,,,,,,,,,,,,,,3,2,2021-01-09_16h26.54.746,CL_C2S3,2020.1.3,Win32,60,,,,,i,1,0.610285,2,media/dknb.png,2,"[-1,1,-1]",5,0,Symb,i,RT,0,0,73,2,1,99,99,i,0.610285,1,2,73,0,73,0,1,,,,,,,
,,,,,,,,,,,,,,,,,,,,3,2,2021-01-09_16h26.54.746,CL_C2S3,2020.1.3,Win32,60,,,,,h,1,0.451125,0,media/dcnb.png,2,"[-1,1,-1]",3,0,Symb,h,RT,0,0,74,2,1,99,99,h,0.451125,1,2,74,0,74,0,1,,,,,,,
,,,,,,,,,,,,,,,,,,,,3,2,2021-01-09_16h26.54.746,CL_C2S3,2020.1.3,Win32,60,,,,,h,1,0.50058,0,media/dcnb.png,1,"[1,-1,-1]",0,0,Symb,h,RT,0,0,75,2,1,99,99,h,0.50058,1,2,75,0,75,0,1,,,,,,,
,,,,,,,,,,,,,,,,,,,,3,2,2021-01-09_16h26.54.746,CL_C2S3,2020.1.3,Win32,60,,,,,u,1,0.5675,1,media/dfnb.png,2,"[-1,1,-1]",4,1,Symb,u,RT,0,0,76,2,1,99,99,u,0.5675,1,2,76,0,76,0,1,,,,,,,
,,,,,,,,,,,,,,,,,,,,3,2,2021-01-09_16h26.54.746,CL_C2S3,2020.1.3,Win32,60,,,,,u,1,0.717275,2,media/dknb.png,1,"[1,-1,-1]",2,0,Symb,u,RT,0,0,77,2,1,99,99,u,0.717275,1,2,77,0,77,0,1,,,,,,,
,,,,,,,,,,,,,,,,,,,,3,2,2021-01-09_16h26.54.746,CL_C2S3,2020.1.3,Win32,60,,,,,i,1,0.4177,2,media/dknb.png,2,"[-1,1,-1]",5,0,Symb,i,RT,0,0,78,2,1,99,99,i,0.4177,1,2,78,0,78,0,1,,,,,,,
,,,,,,,,,,,,,,,,,,,,3,2,2021-01-09_16h26.54.746,CL_C2S3,2020.1.3,Win32,60,,,,,h,1,0.58436,0,media/dcnb.png,1,"[1,-1,-1]",0,0,Symb,h,RT,0,0,79,2,1,99,99,h,0.58436,1,2,79,0,79,0,1,,,,,,,
,,,,,,,,,,,,,,,,,,,,3,2,2021-01-09_16h26.54.746,CL_C2S3,2020.1.3,Win32,60,,,,,h,1,0.350995,0,media/dcnb.png,2,"[-1,1,-1]",3,0,Symb,h,RT,0,0,80,2,1,99,99,h,0.350995,1,2,80,0,80,0,1,,,,,,,
,,,,,,,,,,,,,,,,,,,,3,2,2021-01-09_16h26.54.746,CL_C2S3,2020.1.3,Win32,60,,,,,u,1,0.66677,2,media/dknb.png,1,"[1,-1,-1]",2,0,Symb,u,RT,0,0,81,2,1,99,99,u,0.66677,1,2,81,0,81,0,1,,,,,,,
,,,,,,,,,,,,,,,,,,,,3,2,2021-01-09_16h26.54.746,CL_C2S3,2020.1.3,Win32,60,,,,,i,1,0.701,1,media/dfnb.png,1,"[1,-1,-1]",1,1,Symb,i,RT,0,0,82,2,1,99,99,i,0.701,1,2,82,0,82,0,1,,,,,,,
,,,,,,,,,,,,,,,,,,,,3,2,2021-01-09_16h26.54.746,CL_C2S3,2020.1.3,Win32,60,,,,,u,1,0.567835,1,media/dfnb.png,2,"[-1,1,-1]",4,1,Symb,u,RT,0,0,83,2,1,99,99,u,0.567835,1,2,83,0,83,0,1,,,,,,,
,,,,,,,,,,,,,,,,,,,,3,2,2021-01-09_16h26.54.746,CL_C2S3,2020.1.3,Win32,60,,,,,i,1,0.61678,2,media/dknb.png,2,"[-1,1,-1]",5,0,Symb,i,RT,0,0,84,2,1,99,99,i,0.61678,1,2,84,0,84,0,1,,,,,,,
,,,,,,,,,,,,,,,,,,,,3,2,2021-01-09_16h26.54.746,CL_C2S3,2020.1.3,Win32,60,,,,,u,1,0.587065,2,media/dknb.png,1,"[1,-1,-1]",2,0,Symb,u,RT,0,0,85,2,1,99,99,u,0.587065,1,2,85,0,85,0,1,,,,,,,
,,,,,,,,,,,,,,,,,,,,3,2,2021-01-09_16h26.54.746,CL_C2S3,2020.1.3,Win32,60,,,,,u,1,0.651815,1,media/dfnb.png,2,"[-1,1,-1]",4,1,Symb,u,RT,0,0,86,2,1,99,99,u,0.651815,1,2,86,0,86,0,1,,,,,,,
,,,,,,,,,,,,,,,,,,,,3,2,2021-01-09_16h26.54.746,CL_C2S3,2020.1.3,Win32,60,,,,,i,1,0.603445,1,media/dfnb.png,1,"[1,-1,-1]",1,1,Symb,i,RT,0,0,87,2,1,99,99,i,0.603445,1,2,87,0,87,0,1,,,,,,,
,,,,,,,,,,,,,,,,,,,,3,2,2021-01-09_16h26.54.746,CL_C2S3,2020.1.3,Win32,60,,,,,h,1,0.487595,0,media/dcnb.png,1,"[1,-1,-1]",0,0,Symb,h,RT,0,0,88,2,1,99,99,h,0.487595,1,2,88,0,88,0,1,,,,,,,
,,,,,,,,,,,,,,,,,,,,3,2,2021-01-09_16h26.54.746,CL_C2S3,2020.1.3,Win32,60,,,,,h,1,0.503855,0,media/dcnb.png,2,"[-1,1,-1]",3,0,Symb,h,RT,0,0,89,2,1,99,99,h,0.503855,1,2,89,0,89,0,1,,,,,,,
,,,,,,,,,,,,,,,,,,,,3,2,2021-01-09_16h26.54.746,CL_C2S3,2020.1.3,Win32,60,,,,,h,1,0.48882,0,media/dcnb.png,1,"[1,-1,-1]",0,0,Symb,h,RT,0,0,90,2,1,99,99,h,0.48882,1,2,90,0,90,0,1,,,,,,,
,,,,,,,,,,,,,,,,,,,,3,2,2021-01-09_16h26.54.746,CL_C2S3,2020.1.3,Win32,60,,,,,u,1,0.55194,2,media/dknb.png,1,"[1,-1,-1]",2,0,Symb,u,RT,0,0,91,2,1,99,99,u,0.55194,1,2,91,0,91,0,1,,,,,,,
,,,,,,,,,,,,,,,,,,,,3,2,2021-01-09_16h26.54.746,CL_C2S3,2020.1.3,Win32,60,,,,,i,1,0.63706,1,media/dfnb.png,1,"[1,-1,-1]",1,1,Symb,i,RT,0,0,92,2,1,99,99,i,0.63706,1,2,92,0,92,0,1,,,,,,,
,,,,,,,,,,,,,,,,,,,,3,2,2021-01-09_16h26.54.746,CL_C2S3,2020.1.3,Win32,60,,,,,i,1,0.570485,2,media/dknb.png,2,"[-1,1,-1]",5,0,Symb,i,RT,0,0,93,2,1,99,99,i,0.570485,1,2,93,0,93,0,1,,,,,,,
,,,,,,,,,,,,,,,,,,,,3,2,2021-01-09_16h26.54.746,CL_C2S3,2020.1.3,Win32,60,,,,,i,1,0.72108,1,media/dfnb.png,1,"[1,-1,-1]",1,1,Symb,i,RT,0,0,94,2,1,99,99,i,0.72108,1,2,94,0,94,0,1,,,,,,,
,,,,,,,,,,,,,,,,,,,,3,2,2021-01-09_16h26.54.746,CL_C2S3,2020.1.3,Win32,60,,,,,h,1,0.54208,0,media/dcnb.png,1,"[1,-1,-1]",0,0,Symb,h,RT,0,0,95,2,1,99,99,h,0.54208,1,2,95,0,95,0,1,,,,,,,
,,,,,,,,,,,,,,,,,,,,3,2,2021-01-09_16h26.54.746,CL_C2S3,2020.1.3,Win32,60,,,,,u,1,0.5206,1,media/dfnb.png,2,"[-1,1,-1]",4,1,Symb,u,RT,0,0,96,2,1,99,99,u,0.5206,1,2,96,0,96,0,1,,,,,,,
,,,,,,,,,,,,,,,,,,,,3,2,2021-01-09_16h26.54.746,CL_C2S3,2020.1.3,Win32,60,,,,,u,1,0.45443,1,media/dfnb.png,2,"[-1,1,-1]",4,1,Symb,u,RT,0,0,97,2,1,99,99,u,0.45443,1,2,97,0,97,0,1,,,,,,,
,,,,,,,,,,,,,,,,,,,,3,2,2021-01-09_16h26.54.746,CL_C2S3,2020.1.3,Win32,60,,,,,i,1,1.00166,2,media/dknb.png,2,"[-1,1,-1]",5,0,Symb,i,RT,0,0,98,2,1,99,99,i,1.00166,1,2,98,0,98,0,1,,,,,,,
,,,,,,,,,,,,,,,,,,,,3,2,2021-01-09_16h26.54.746,CL_C2S3,2020.1.3,Win32,60,,,,,h,1,0.53686,0,media/dcnb.png,2,"[-1,1,-1]",3,0,Symb,h,RT,0,0,99,2,1,99,99,h,0.53686,1,2,99,0,99,0,1,,,,,,,
,,,,,,,,,,,,,,,,,,,,3,2,2021-01-09_16h26.54.746,CL_C2S3,2020.1.3,Win32,60,,,,,u,1,0.535625,2,media/dknb.png,1,"[1,-1,-1]",2,0,Symb,u,RT,0,0,100,2,1,99,99,u,0.535625,1,2,100,0,100,0,1,,,,,,,
,,,,,,,,,,,,,,,,,,,,3,2,2021-01-09_16h26.54.746,CL_C2S3,2020.1.3,Win32,60,,,,,h,1,0.5184,0,media/dcnb.png,2,"[-1,1,-1]",3,0,Symb,h,RT,0,0,101,2,1,99,99,h,0.5184,1,2,101,0,101,0,1,,,,,,,
,,,,,,,,,,,,,,,,,,,,3,2,2021-01-09_16h26.54.746,CL_C2S3,2020.1.3,Win32,60,,,,,i,1,0.621045,2,media/dknb.png,2,"[-1,1,-1]",5,0,Symb,i,RT,0,0,102,2,1,99,99,i,0.621045,1,2,102,0,102,0,1,,,,,,,
,,,,,,,,,,,,,,,,,,,,3,2,2021-01-09_16h26.54.746,CL_C2S3,2020.1.3,Win32,60,,,,,u,1,0.91834,1,media/dfnb.png,2,"[-1,1,-1]",4,1,Symb,u,RT,0,0,103,2,1,99,99,u,0.91834,1,2,103,0,103,0,1,,,,,,,
,,,,,,,,,,,,,,,,,,,,3,2,2021-01-09_16h26.54.746,CL_C2S3,2020.1.3,Win32,60,,,,,i,1,0.55403,1,media/dfnb.png,1,"[1,-1,-1]",1,1,Symb,i,RT,0,0,104,2,1,99,99,i,0.55403,1,2,104,0,104,0,1,,,,,,,
,,,,,,,,,,,,,,,,,,,,3,2,2021-01-09_16h26.54.746,CL_C2S3,2020.1.3,Win32,60,,,,,u,1,0.721685,2,media/dknb.png,1,"[1,-1,-1]",2,0,Symb,u,RT,0,0,105,2,1,99,99,u,0.721685,1,2,105,0,105,0,1,,,,,,,
,,,,,,,,,,,,,,,,,,,,3,2,2021-01-09_16h26.54.746,CL_C2S3,2020.1.3,Win32,60,,,,,h,1,0.522415,0,media/dcnb.png,1,"[1,-1,-1]",0,0,Symb,h,RT,0,0,106,2,1,99,99,h,0.522415,1,2,106,0,106,0,1,,,,,,,
,,,,,,,,,,,,,,,,,,,,3,2,2021-01-09_16h26.54.746,CL_C2S3,2020.1.3,Win32,60,,,,,h,1,0.38847,0,media/dcnb.png,2,"[-1,1,-1]",3,0,Symb,h,RT,0,0,107,2,1,99,99,h,0.38847,1,2,107,0,107,0,1,,,,,,,
,,,,,,,,,,,,,,,,,,,,3,2,2021-01-09_16h26.54.746,CL_C2S3,2020.1.3,Win32,60,,,,,i,1,1.054295,2,media/dknb.png,2,"[-1,1,-1]",5,0,Symb,i,RT,0,0,108,2,1,99,99,i,1.054295,1,2,108,0,108,0,1,,,,,,,
,,,,,,,,,,,,,,,,,,,,3,2,2021-01-09_16h26.54.746,CL_C2S3,2020.1.3,Win32,60,,,,,i,1,1.00481,1,media/dfnb.png,1,"[1,-1,-1]",1,1,Symb,i,RT,0,0,109,2,1,99,99,i,1.00481,1,2,109,0,109,0,1,,,,,,,
,,,,,,,,,,,,,,,,,,,,3,2,2021-01-09_16h26.54.746,CL_C2S3,2020.1.3,Win32,60,,,,,u,1,0.554895,2,media/dknb.png,1,"[1,-1,-1]",2,0,Symb,u,RT,0,0,110,2,1,99,99,u,0.554895,1,2,110,0,110,0,1,,,,,,,
,,,,,,,,,,,,,,,,,,,,3,2,2021-01-09_16h26.54.746,CL_C2S3,2020.1.3,Win32,60,,,,,h,1,0.504245,0,media/dcnb.png,1,"[1,-1,-1]",0,0,Symb,h,RT,0,0,111,2,1,99,99,h,0.504245,1,2,111,0,111,0,1,,,,,,,
,,,,,,,,,,,,,,,,,,,,3,2,2021-01-09_16h26.54.746,CL_C2S3,2020.1.3,Win32,60,,,,,h,1,0.43756,0,media/dcnb.png,2,"[-1,1,-1]",3,0,Symb,h,RT,0,0,112,2,1,99,99,h,0.43756,1,2,112,0,112,0,1,,,,,,,
,,,,,,,,,,,,,,,,,,,,3,2,2021-01-09_16h26.54.746,CL_C2S3,2020.1.3,Win32,60,,,,,u,1,0.687305,1,media/dfnb.png,2,"[-1,1,-1]",4,1,Symb,u,RT,0,0,113,2,1,99,99,u,0.687305,1,2,113,0,113,0,1,,,,,,,
,,,,,,,,,,,,,,,,,,,,3,2,2021-01-09_16h26.54.746,CL_C2S3,2020.1.3,Win32,60,,,,,i,1,0.64671,1,media/dfnb.png,1,"[1,-1,-1]",1,1,Symb,i,RT,0,0,114,2,1,99,99,i,0.64671,1,2,114,0,114,0,1,,,,,,,
,,,,,,,,,,,,,,,,,,,,3,2,2021-01-09_16h26.54.746,CL_C2S3,2020.1.3,Win32,60,,,,,h,1,0.500465,0,media/dcnb.png,1,"[1,-1,-1]",0,0,Symb,h,RT,0,0,115,2,1,99,99,h,0.500465,1,2,115,0,115,0,1,,,,,,,
,,,,,,,,,,,,,,,,,,,,3,2,2021-01-09_16h26.54.746,CL_C2S3,2020.1.3,Win32,60,,,,,u,1,0.51761,1,media/dfnb.png,2,"[-1,1,-1]",4,1,Symb,u,RT,0,0,116,2,1,99,99,u,0.51761,1,2,116,0,116,0,1,,,,,,,
,,,,,,,,,,,,,,,,,,,,3,2,2021-01-09_16h26.54.746,CL_C2S3,2020.1.3,Win32,60,,,,,h,1,0.51543,0,media/dcnb.png,2,"[-1,1,-1]",3,0,Symb,h,RT,0,0,117,2,1,99,99,h,0.51543,1,2,117,0,117,0,1,,,,,,,
,,,,,,,,,,,,,,,,,,,,3,2,2021-01-09_16h26.54.746,CL_C2S3,2020.1.3,Win32,60,,,,,i,1,0.589275,2,media/dknb.png,2,"[-1,1,-1]",5,0,Symb,i,RT,0,0,118,2,1,99,99,i,0.589275,1,2,118,0,118,0,1,,,,,,,
,,,,,,,,,,,,,,,,,,,,3,2,2021-01-09_16h26.54.746,CL_C2S3,2020.1.3,Win32,60,,,,,u,1,0.5716,2,media/dknb.png,1,"[1,-1,-1]",2,0,Symb,u,RT,0,0,119,2,1,99,99,u,0.5716,1,2,119,0,119,0,1,,,,,,,
,,,,,,,,,,,,,,,,,,,,3,2,2021-01-09_16h26.54.746,CL_C2S3,2020.1.3,Win32,60,,,,,,,,,,,,,,,,,,,,,,,,,,,,,,,,,0,0,0,0,1,,
,,,,,,,,,,,,,,,,,,,,3,2,2021-01-09_16h26.54.746,CL_C2S3,2020.1.3,Win32,60,,,u,0.784725,i,1,1.5381,1,media/dfnb.png,1,"[1,-1,-1]",1,1,Symb,i,RT,0,0,0,2,2,99,99,i,1.5381,1,2,0,0,0,0,1,,,,,,,
,,,,,,,,,,,,,,,,,,,,3,2,2021-01-09_16h26.54.746,CL_C2S3,2020.1.3,Win32,60,,,,,h,1,0.617965,0,media/dcnb.png,1,"[1,-1,-1]",0,0,Symb,h,RT,0,0,1,2,2,99,99,h,0.617965,1,2,1,0,1,0,1,,,,,,,
,,,,,,,,,,,,,,,,,,,,3,2,2021-01-09_16h26.54.746,CL_C2S3,2020.1.3,Win32,60,,,,,u,1,0.50186,1,media/dfnb.png,2,"[-1,1,-1]",4,1,Symb,u,RT,0,0,2,2,2,99,99,u,0.50186,1,2,2,0,2,0,1,,,,,,,
,,,,,,,,,,,,,,,,,,,,3,2,2021-01-09_16h26.54.746,CL_C2S3,2020.1.3,Win32,60,,,,,u,1,0.434995,1,media/dfnb.png,2,"[-1,1,-1]",4,1,Symb,u,RT,0,0,3,2,2,99,99,u,0.434995,1,2,3,0,3,0,1,,,,,,,
,,,,,,,,,,,,,,,,,,,,3,2,2021-01-09_16h26.54.746,CL_C2S3,2020.1.3,Win32,60,,,,,h,1,0.4393,0,media/dcnb.png,1,"[1,-1,-1]",0,0,Symb,h,RT,0,0,4,2,2,99,99,h,0.4393,1,2,4,0,4,0,1,,,,,,,
,,,,,,,,,,,,,,,,,,,,3,2,2021-01-09_16h26.54.746,CL_C2S3,2020.1.3,Win32,60,,,,,u,1,0.85002,2,media/dknb.png,1,"[1,-1,-1]",2,0,Symb,u,RT,0,0,5,2,2,99,99,u,0.85002,1,2,5,0,5,0,1,,,,,,,
,,,,,,,,,,,,,,,,,,,,3,2,2021-01-09_16h26.54.746,CL_C2S3,2020.1.3,Win32,60,,,,,i,1,0.73466,1,media/dfnb.png,1,"[1,-1,-1]",1,1,Symb,i,RT,0,0,6,2,2,99,99,i,0.73466,1,2,6,0,6,0,1,,,,,,,
,,,,,,,,,,,,,,,,,,,,3,2,2021-01-09_16h26.54.746,CL_C2S3,2020.1.3,Win32,60,,,,,i,1,0.78753,2,media/dknb.png,2,"[-1,1,-1]",5,0,Symb,i,RT,0,0,7,2,2,99,99,i,0.78753,1,2,7,0,7,0,1,,,,,,,
,,,,,,,,,,,,,,,,,,,,3,2,2021-01-09_16h26.54.746,CL_C2S3,2020.1.3,Win32,60,,,,,h,1,0.505195,0,media/dcnb.png,2,"[-1,1,-1]",3,0,Symb,h,RT,0,0,8,2,2,99,99,h,0.505195,1,2,8,0,8,0,1,,,,,,,
,,,,,,,,,,,,,,,,,,,,3,2,2021-01-09_16h26.54.746,CL_C2S3,2020.1.3,Win32,60,,,,,i,1,0.702435,2,media/dknb.png,2,"[-1,1,-1]",5,0,Symb,i,RT,0,0,9,2,2,99,99,i,0.702435,1,2,9,0,9,0,1,,,,,,,
,,,,,,,,,,,,,,,,,,,,3,2,2021-01-09_16h26.54.746,CL_C2S3,2020.1.3,Win32,60,,,,,h,1,0.555705,0,media/dcnb.png,2,"[-1,1,-1]",3,0,Symb,h,RT,0,0,10,2,2,99,99,h,0.555705,1,2,10,0,10,0,1,,,,,,,
,,,,,,,,,,,,,,,,,,,,3,2,2021-01-09_16h26.54.746,CL_C2S3,2020.1.3,Win32,60,,,,,u,1,0.837295,2,media/dknb.png,1,"[1,-1,-1]",2,0,Symb,u,RT,0,0,11,2,2,99,99,u,0.837295,1,2,11,0,11,0,1,,,,,,,
,,,,,,,,,,,,,,,,,,,,3,2,2021-01-09_16h26.54.746,CL_C2S3,2020.1.3,Win32,60,,,,,u,1,0.45331,2,media/dknb.png,1,"[1,-1,-1]",2,0,Symb,u,RT,0,0,12,2,2,99,99,u,0.45331,1,2,12,0,12,0,1,,,,,,,
,,,,,,,,,,,,,,,,,,,,3,2,2021-01-09_16h26.54.746,CL_C2S3,2020.1.3,Win32,60,,,,,h,1,0.44832,0,media/dcnb.png,1,"[1,-1,-1]",0,0,Symb,h,RT,0,0,13,2,2,99,99,h,0.44832,1,2,13,0,13,0,1,,,,,,,
,,,,,,,,,,,,,,,,,,,,3,2,2021-01-09_16h26.54.746,CL_C2S3,2020.1.3,Win32,60,,,,,h,1,0.404385,0,media/dcnb.png,1,"[1,-1,-1]",0,0,Symb,h,RT,0,0,14,2,2,99,99,h,0.404385,1,2,14,0,14,0,1,,,,,,,
,,,,,,,,,,,,,,,,,,,,3,2,2021-01-09_16h26.54.746,CL_C2S3,2020.1.3,Win32,60,,,,,h,1,0.5012,0,media/dcnb.png,2,"[-1,1,-1]",3,0,Symb,h,RT,0,0,15,2,2,99,99,h,0.5012,1,2,15,0,15,0,1,,,,,,,
,,,,,,,,,,,,,,,,,,,,3,2,2021-01-09_16h26.54.746,CL_C2S3,2020.1.3,Win32,60,,,,,u,1,0.484335,1,media/dfnb.png,2,"[-1,1,-1]",4,1,Symb,u,RT,0,0,16,2,2,99,99,u,0.484335,1,2,16,0,16,0,1,,,,,,,
,,,,,,,,,,,,,,,,,,,,3,2,2021-01-09_16h26.54.746,CL_C2S3,2020.1.3,Win32,60,,,,,i,1,0.65396,2,media/dknb.png,2,"[-1,1,-1]",5,0,Symb,i,RT,0,0,17,2,2,99,99,i,0.65396,1,2,17,0,17,0,1,,,,,,,
,,,,,,,,,,,,,,,,,,,,3,2,2021-01-09_16h26.54.746,CL_C2S3,2020.1.3,Win32,60,,,,,u,0,0.52713,1,media/dfnb.png,1,"[1,-1,-1]",1,1,Symb,i,RT,0,0,18,2,2,99,99,u,0.52713,0,2,18,0,18,0,1,,,,,,,
,,,,,,,,,,,,,,,,,,,,3,2,2021-01-09_16h26.54.746,CL_C2S3,2020.1.3,Win32,60,,,,,u,1,0.56703,2,media/dknb.png,1,"[1,-1,-1]",2,0,Symb,u,RT,0,0,19,2,2,99,99,u,0.56703,1,2,19,0,19,0,1,,,,,,,
,,,,,,,,,,,,,,,,,,,,3,2,2021-01-09_16h26.54.746,CL_C2S3,2020.1.3,Win32,60,,,,,u,1,0.62236,1,media/dfnb.png,2,"[-1,1,-1]",4,1,Symb,u,RT,0,0,20,2,2,99,99,u,0.62236,1,2,20,0,20,0,1,,,,,,,
,,,,,,,,,,,,,,,,,,,,3,2,2021-01-09_16h26.54.746,CL_C2S3,2020.1.3,Win32,60,,,,,h,1,0.52004,0,media/dcnb.png,2,"[-1,1,-1]",3,0,Symb,h,RT,0,0,21,2,2,99,99,h,0.52004,1,2,21,0,21,0,1,,,,,,,
,,,,,,,,,,,,,,,,,,,,3,2,2021-01-09_16h26.54.746,CL_C2S3,2020.1.3,Win32,60,,,,,i,1,0.62131,1,media/dfnb.png,1,"[1,-1,-1]",1,1,Symb,i,RT,0,0,22,2,2,99,99,i,0.62131,1,2,22,0,22,0,1,,,,,,,
,,,,,,,,,,,,,,,,,,,,3,2,2021-01-09_16h26.54.746,CL_C2S3,2020.1.3,Win32,60,,,,,i,1,0.520095,2,media/dknb.png,2,"[-1,1,-1]",5,0,Symb,i,RT,0,0,23,2,2,99,99,i,0.520095,1,2,23,0,23,0,1,,,,,,,
,,,,,,,,,,,,,,,,,,,,3,2,2021-01-09_16h26.54.746,CL_C2S3,2020.1.3,Win32,60,,,,,u,1,0.618535,1,media/dfnb.png,2,"[-1,1,-1]",4,1,Symb,u,RT,0,0,24,2,2,99,99,u,0.618535,1,2,24,0,24,0,1,,,,,,,
,,,,,,,,,,,,,,,,,,,,3,2,2021-01-09_16h26.54.746,CL_C2S3,2020.1.3,Win32,60,,,,,h,1,0.505135,0,media/dcnb.png,1,"[1,-1,-1]",0,0,Symb,h,RT,0,0,25,2,2,99,99,h,0.505135,1,2,25,0,25,0,1,,,,,,,
,,,,,,,,,,,,,,,,,,,,3,2,2021-01-09_16h26.54.746,CL_C2S3,2020.1.3,Win32,60,,,,,i,1,0.55144,2,media/dknb.png,2,"[-1,1,-1]",5,0,Symb,i,RT,0,0,26,2,2,99,99,i,0.55144,1,2,26,0,26,0,1,,,,,,,
,,,,,,,,,,,,,,,,,,,,3,2,2021-01-09_16h26.54.746,CL_C2S3,2020.1.3,Win32,60,,,,,h,1,0.602325,0,media/dcnb.png,2,"[-1,1,-1]",3,0,Symb,h,RT,0,0,27,2,2,99,99,h,0.602325,1,2,27,0,27,0,1,,,,,,,
,,,,,,,,,,,,,,,,,,,,3,2,2021-01-09_16h26.54.746,CL_C2S3,2020.1.3,Win32,60,,,,,u,1,0.55309,2,media/dknb.png,1,"[1,-1,-1]",2,0,Symb,u,RT,0,0,28,2,2,99,99,u,0.55309,1,2,28,0,28,0,1,,,,,,,
,,,,,,,,,,,,,,,,,,,,3,2,2021-01-09_16h26.54.746,CL_C2S3,2020.1.3,Win32,60,,,,,i,1,0.7305,1,media/dfnb.png,1,"[1,-1,-1]",1,1,Symb,i,RT,0,0,29,2,2,99,99,i,0.7305,1,2,29,0,29,0,1,,,,,,,
,,,,,,,,,,,,,,,,,,,,3,2,2021-01-09_16h26.54.746,CL_C2S3,2020.1.3,Win32,60,,,,,i,1,0.684285,1,media/dfnb.png,1,"[1,-1,-1]",1,1,Symb,i,RT,0,0,30,2,2,99,99,i,0.684285,1,2,30,0,30,0,1,,,,,,,
,,,,,,,,,,,,,,,,,,,,3,2,2021-01-09_16h26.54.746,CL_C2S3,2020.1.3,Win32,60,,,,,i,1,0.517285,1,media/dfnb.png,1,"[1,-1,-1]",1,1,Symb,i,RT,0,0,31,2,2,99,99,i,0.517285,1,2,31,0,31,0,1,,,,,,,
,,,,,,,,,,,,,,,,,,,,3,2,2021-01-09_16h26.54.746,CL_C2S3,2020.1.3,Win32,60,,,,,h,1,0.534315,0,media/dcnb.png,2,"[-1,1,-1]",3,0,Symb,h,RT,0,0,32,2,2,99,99,h,0.534315,1,2,32,0,32,0,1,,,,,,,
,,,,,,,,,,,,,,,,,,,,3,2,2021-01-09_16h26.54.746,CL_C2S3,2020.1.3,Win32,60,,,,,u,1,0.68422,2,media/dknb.png,1,"[1,-1,-1]",2,0,Symb,u,RT,0,0,33,2,2,99,99,u,0.68422,1,2,33,0,33,0,1,,,,,,,
,,,,,,,,,,,,,,,,,,,,3,2,2021-01-09_16h26.54.746,CL_C2S3,2020.1.3,Win32,60,,,,,h,1,0.500935,0,media/dcnb.png,1,"[1,-1,-1]",0,0,Symb,h,RT,0,0,34,2,2,99,99,h,0.500935,1,2,34,0,34,0,1,,,,,,,
,,,,,,,,,,,,,,,,,,,,3,2,2021-01-09_16h26.54.746,CL_C2S3,2020.1.3,Win32,60,,,,,u,1,0.717735,2,media/dknb.png,1,"[1,-1,-1]",2,0,Symb,u,RT,0,0,35,2,2,99,99,u,0.717735,1,2,35,0,35,0,1,,,,,,,
,,,,,,,,,,,,,,,,,,,,3,2,2021-01-09_16h26.54.746,CL_C2S3,2020.1.3,Win32,60,,,,,u,1,0.61779,1,media/dfnb.png,2,"[-1,1,-1]",4,1,Symb,u,RT,0,0,36,2,2,99,99,u,0.61779,1,2,36,0,36,0,1,,,,,,,
,,,,,,,,,,,,,,,,,,,,3,2,2021-01-09_16h26.54.746,CL_C2S3,2020.1.3,Win32,60,,,,,u,1,0.38668,1,media/dfnb.png,2,"[-1,1,-1]",4,1,Symb,u,RT,0,0,37,2,2,99,99,u,0.38668,1,2,37,0,37,0,1,,,,,,,
,,,,,,,,,,,,,,,,,,,,3,2,2021-01-09_16h26.54.746,CL_C2S3,2020.1.3,Win32,60,,,,,h,1,0.43432,0,media/dcnb.png,2,"[-1,1,-1]",3,0,Symb,h,RT,0,0,38,2,2,99,99,h,0.43432,1,2,38,0,38,0,1,,,,,,,
,,,,,,,,,,,,,,,,,,,,3,2,2021-01-09_16h26.54.746,CL_C2S3,2020.1.3,Win32,60,,,,,i,1,0.782415,2,media/dknb.png,2,"[-1,1,-1]",5,0,Symb,i,RT,0,0,39,2,2,99,99,i,0.782415,1,2,39,0,39,0,1,,,,,,,
,,,,,,,,,,,,,,,,,,,,3,2,2021-01-09_16h26.54.746,CL_C2S3,2020.1.3,Win32,60,,,,,i,1,0.522015,2,media/dknb.png,2,"[-1,1,-1]",5,0,Symb,i,RT,0,0,40,2,2,99,99,i,0.522015,1,2,40,0,40,0,1,,,,,,,
,,,,,,,,,,,,,,,,,,,,3,2,2021-01-09_16h26.54.746,CL_C2S3,2020.1.3,Win32,60,,,,,h,1,0.536795,0,media/dcnb.png,1,"[1,-1,-1]",0,0,Symb,h,RT,0,0,41,2,2,99,99,h,0.536795,1,2,41,0,41,0,1,,,,,,,
,,,,,,,,,,,,,,,,,,,,3,2,2021-01-09_16h26.54.746,CL_C2S3,2020.1.3,Win32,60,,,,,u,1,0.605525,2,media/dknb.png,1,"[1,-1,-1]",2,0,Symb,u,RT,0,0,42,2,2,99,99,u,0.605525,1,2,42,0,42,0,1,,,,,,,
,,,,,,,,,,,,,,,,,,,,3,2,2021-01-09_16h26.54.746,CL_C2S3,2020.1.3,Win32,60,,,,,i,1,0.637465,2,media/dknb.png,2,"[-1,1,-1]",5,0,Symb,i,RT,0,0,43,2,2,99,99,i,0.637465,1,2,43,0,43,0,1,,,,,,,
,,,,,,,,,,,,,,,,,,,,3,2,2021-01-09_16h26.54.746,CL_C2S3,2020.1.3,Win32,60,,,,,i,1,0.708765,1,media/dfnb.png,1,"[1,-1,-1]",1,1,Symb,i,RT,0,0,44,2,2,99,99,i,0.708765,1,2,44,0,44,0,1,,,,,,,
,,,,,,,,,,,,,,,,,,,,3,2,2021-01-09_16h26.54.746,CL_C2S3,2020.1.3,Win32,60,,,,,u,1,0.48474,1,media/dfnb.png,2,"[-1,1,-1]",4,1,Symb,u,RT,0,0,45,2,2,99,99,u,0.48474,1,2,45,0,45,0,1,,,,,,,
,,,,,,,,,,,,,,,,,,,,3,2,2021-01-09_16h26.54.746,CL_C2S3,2020.1.3,Win32,60,,,,,h,1,0.518845,0,media/dcnb.png,1,"[1,-1,-1]",0,0,Symb,h,RT,0,0,46,2,2,99,99,h,0.518845,1,2,46,0,46,0,1,,,,,,,
,,,,,,,,,,,,,,,,,,,,3,2,2021-01-09_16h26.54.746,CL_C2S3,2020.1.3,Win32,60,,,,,h,1,0.38766,0,media/dcnb.png,1,"[1,-1,-1]",0,0,Symb,h,RT,0,0,47,2,2,99,99,h,0.38766,1,2,47,0,47,0,1,,,,,,,
,,,,,,,,,,,,,,,,,,,,3,2,2021-01-09_16h26.54.746,CL_C2S3,2020.1.3,Win32,60,,,,,u,0,0.46952,1,media/dfnb.png,1,"[1,-1,-1]",1,1,Symb,i,RT,0,0,48,2,2,99,99,u,0.46952,0,2,48,0,48,0,1,,,,,,,
,,,,,,,,,,,,,,,,,,,,3,2,2021-01-09_16h26.54.746,CL_C2S3,2020.1.3,Win32,60,,,,,u,1,0.37111,1,media/dfnb.png,2,"[-1,1,-1]",4,1,Symb,u,RT,0,0,49,2,2,99,99,u,0.37111,1,2,49,0,49,0,1,,,,,,,
,,,,,,,,,,,,,,,,,,,,3,2,2021-01-09_16h26.54.746,CL_C2S3,2020.1.3,Win32,60,,,,,i,1,0.719615,2,media/dknb.png,2,"[-1,1,-1]",5,0,Symb,i,RT,0,0,50,2,2,99,99,i,0.719615,1,2,50,0,50,0,1,,,,,,,
,,,,,,,,,,,,,,,,,,,,3,2,2021-01-09_16h26.54.746,CL_C2S3,2020.1.3,Win32,60,,,,,h,1,0.534645,0,media/dcnb.png,2,"[-1,1,-1]",3,0,Symb,h,RT,0,0,51,2,2,99,99,h,0.534645,1,2,51,0,51,0,1,,,,,,,
,,,,,,,,,,,,,,,,,,,,3,2,2021-01-09_16h26.54.746,CL_C2S3,2020.1.3,Win32,60,,,,,i,0,0.8182,2,media/dknb.png,1,"[1,-1,-1]",2,0,Symb,u,RT,0,0,52,2,2,99,99,i,0.8182,0,2,52,0,52,0,1,,,,,,,
,,,,,,,,,,,,,,,,,,,,3,2,2021-01-09_16h26.54.746,CL_C2S3,2020.1.3,Win32,60,,,,,h,1,0.567825,0,media/dcnb.png,2,"[-1,1,-1]",3,0,Symb,h,RT,0,0,53,2,2,99,99,h,0.567825,1,2,53,0,53,0,1,,,,,,,
,,,,,,,,,,,,,,,,,,,,3,2,2021-01-09_16h26.54.746,CL_C2S3,2020.1.3,Win32,60,,,,,h,1,0.352735,0,media/dcnb.png,2,"[-1,1,-1]",3,0,Symb,h,RT,0,0,54,2,2,99,99,h,0.352735,1,2,54,0,54,0,1,,,,,,,
,,,,,,,,,,,,,,,,,,,,3,2,2021-01-09_16h26.54.746,CL_C2S3,2020.1.3,Win32,60,,,,,u,1,0.55337,2,media/dknb.png,1,"[1,-1,-1]",2,0,Symb,u,RT,0,0,55,2,2,99,99,u,0.55337,1,2,55,0,55,0,1,,,,,,,
,,,,,,,,,,,,,,,,,,,,3,2,2021-01-09_16h26.54.746,CL_C2S3,2020.1.3,Win32,60,,,,,i,1,0.555585,1,media/dfnb.png,1,"[1,-1,-1]",1,1,Symb,i,RT,0,0,56,2,2,99,99,i,0.555585,1,2,56,0,56,0,1,,,,,,,
,,,,,,,,,,,,,,,,,,,,3,2,2021-01-09_16h26.54.746,CL_C2S3,2020.1.3,Win32,60,,,,,h,1,0.568325,0,media/dcnb.png,1,"[1,-1,-1]",0,0,Symb,h,RT,0,0,57,2,2,99,99,h,0.568325,1,2,57,0,57,0,1,,,,,,,
,,,,,,,,,,,,,,,,,,,,3,2,2021-01-09_16h26.54.746,CL_C2S3,2020.1.3,Win32,60,,,,,i,1,0.65334,2,media/dknb.png,2,"[-1,1,-1]",5,0,Symb,i,RT,0,0,58,2,2,99,99,i,0.65334,1,2,58,0,58,0,1,,,,,,,
,,,,,,,,,,,,,,,,,,,,3,2,2021-01-09_16h26.54.746,CL_C2S3,2020.1.3,Win32,60,,,,,u,1,0.670665,1,media/dfnb.png,2,"[-1,1,-1]",4,1,Symb,u,RT,0,0,59,2,2,99,99,u,0.670665,1,2,59,0,59,0,1,,,,,,,
,,,,,,,,,,,,,,,,,,,,3,2,2021-01-09_16h26.54.746,CL_C2S3,2020.1.3,Win32,60,,,,,u,1,0.45173,1,media/dfnb.png,2,"[-1,1,-1]",4,1,Symb,u,RT,0,0,60,2,2,99,99,u,0.45173,1,2,60,0,60,0,1,,,,,,,
,,,,,,,,,,,,,,,,,,,,3,2,2021-01-09_16h26.54.746,CL_C2S3,2020.1.3,Win32,60,,,,,i,1,0.570245,1,media/dfnb.png,1,"[1,-1,-1]",1,1,Symb,i,RT,0,0,61,2,2,99,99,i,0.570245,1,2,61,0,61,0,1,,,,,,,
,,,,,,,,,,,,,,,,,,,,3,2,2021-01-09_16h26.54.746,CL_C2S3,2020.1.3,Win32,60,,,,,h,1,0.50311,0,media/dcnb.png,2,"[-1,1,-1]",3,0,Symb,h,RT,0,0,62,2,2,99,99,h,0.50311,1,2,62,0,62,0,1,,,,,,,
,,,,,,,,,,,,,,,,,,,,3,2,2021-01-09_16h26.54.746,CL_C2S3,2020.1.3,Win32,60,,,,,i,1,0.687625,1,media/dfnb.png,1,"[1,-1,-1]",1,1,Symb,i,RT,0,0,63,2,2,99,99,i,0.687625,1,2,63,0,63,0,1,,,,,,,
,,,,,,,,,,,,,,,,,,,,3,2,2021-01-09_16h26.54.746,CL_C2S3,2020.1.3,Win32,60,,,,,h,1,0.504985,0,media/dcnb.png,1,"[1,-1,-1]",0,0,Symb,h,RT,0,0,64,2,2,99,99,h,0.504985,1,2,64,0,64,0,1,,,,,,,
,,,,,,,,,,,,,,,,,,,,3,2,2021-01-09_16h26.54.746,CL_C2S3,2020.1.3,Win32,60,,,,,i,1,0.569695,2,media/dknb.png,2,"[-1,1,-1]",5,0,Symb,i,RT,0,0,65,2,2,99,99,i,0.569695,1,2,65,0,65,0,1,,,,,,,
,,,,,,,,,,,,,,,,,,,,3,2,2021-01-09_16h26.54.746,CL_C2S3,2020.1.3,Win32,60,,,,,h,1,0.52564,0,media/dcnb.png,1,"[1,-1,-1]",0,0,Symb,h,RT,0,0,66,2,2,99,99,h,0.52564,1,2,66,0,66,0,1,,,,,,,
,,,,,,,,,,,,,,,,,,,,3,2,2021-01-09_16h26.54.746,CL_C2S3,2020.1.3,Win32,60,,,,,h,1,0.470335,0,media/dcnb.png,2,"[-1,1,-1]",3,0,Symb,h,RT,0,0,67,2,2,99,99,h,0.470335,1,2,67,0,67,0,1,,,,,,,
,,,,,,,,,,,,,,,,,,,,3,2,2021-01-09_16h26.54.746,CL_C2S3,2020.1.3,Win32,60,,,,,u,1,0.65407,2,media/dknb.png,1,"[1,-1,-1]",2,0,Symb,u,RT,0,0,68,2,2,99,99,u,0.65407,1,2,68,0,68,0,1,,,,,,,
,,,,,,,,,,,,,,,,,,,,3,2,2021-01-09_16h26.54.746,CL_C2S3,2020.1.3,Win32,60,,,,,u,1,0.53188,2,media/dknb.png,1,"[1,-1,-1]",2,0,Symb,u,RT,0,0,69,2,2,99,99,u,0.53188,1,2,69,0,69,0,1,,,,,,,
,,,,,,,,,,,,,,,,,,,,3,2,2021-01-09_16h26.54.746,CL_C2S3,2020.1.3,Win32,60,,,,,i,1,0.552545,2,media/dknb.png,2,"[-1,1,-1]",5,0,Symb,i,RT,0,0,70,2,2,99,99,i,0.552545,1,2,70,0,70,0,1,,,,,,,
,,,,,,,,,,,,,,,,,,,,3,2,2021-01-09_16h26.54.746,CL_C2S3,2020.1.3,Win32,60,,,,,u,1,0.60263,1,media/dfnb.png,2,"[-1,1,-1]",4,1,Symb,u,RT,0,0,71,2,2,99,99,u,0.60263,1,2,71,0,71,0,1,,,,,,,
,,,,,,,,,,,,,,,,,,,,3,2,2021-01-09_16h26.54.746,CL_C2S3,2020.1.3,Win32,60,,,,,i,1,0.75327,2,media/dknb.png,2,"[-1,1,-1]",5,0,Symb,i,RT,0,0,72,2,2,99,99,i,0.75327,1,2,72,0,72,0,1,,,,,,,
,,,,,,,,,,,,,,,,,,,,3,2,2021-01-09_16h26.54.746,CL_C2S3,2020.1.3,Win32,60,,,,,u,0,0.469975,1,media/dfnb.png,1,"[1,-1,-1]",1,1,Symb,i,RT,0,0,73,2,2,99,99,u,0.469975,0,2,73,0,73,0,1,,,,,,,
,,,,,,,,,,,,,,,,,,,,3,2,2021-01-09_16h26.54.746,CL_C2S3,2020.1.3,Win32,60,,,,,u,1,0.72272,2,media/dknb.png,1,"[1,-1,-1]",2,0,Symb,u,RT,0,0,74,2,2,99,99,u,0.72272,1,2,74,0,74,0,1,,,,,,,
,,,,,,,,,,,,,,,,,,,,3,2,2021-01-09_16h26.54.746,CL_C2S3,2020.1.3,Win32,60,,,,,u,1,0.584685,1,media/dfnb.png,2,"[-1,1,-1]",4,1,Symb,u,RT,0,0,75,2,2,99,99,u,0.584685,1,2,75,0,75,0,1,,,,,,,
,,,,,,,,,,,,,,,,,,,,3,2,2021-01-09_16h26.54.746,CL_C2S3,2020.1.3,Win32,60,,,,,u,1,2.51071,2,media/dknb.png,1,"[1,-1,-1]",2,0,Symb,u,RT,0,0,76,2,2,99,99,u,2.51071,1,2,76,0,76,0,1,,,,,,,
,,,,,,,,,,,,,,,,,,,,3,2,2021-01-09_16h26.54.746,CL_C2S3,2020.1.3,Win32,60,,,,,i,1,0.702195,1,media/dfnb.png,1,"[1,-1,-1]",1,1,Symb,i,RT,0,0,77,2,2,99,99,i,0.702195,1,2,77,0,77,0,1,,,,,,,
,,,,,,,,,,,,,,,,,,,,3,2,2021-01-09_16h26.54.746,CL_C2S3,2020.1.3,Win32,60,,,,,h,1,0.520735,0,media/dcnb.png,1,"[1,-1,-1]",0,0,Symb,h,RT,0,0,78,2,2,99,99,h,0.520735,1,2,78,0,78,0,1,,,,,,,
,,,,,,,,,,,,,,,,,,,,3,2,2021-01-09_16h26.54.746,CL_C2S3,2020.1.3,Win32,60,,,,,h,1,0.38931,0,media/dcnb.png,1,"[1,-1,-1]",0,0,Symb,h,RT,0,0,79,2,2,99,99,h,0.38931,1,2,79,0,79,0,1,,,,,,,
,,,,,,,,,,,,,,,,,,,,3,2,2021-01-09_16h26.54.746,CL_C2S3,2020.1.3,Win32,60,,,,,u,1,0.5207,1,media/dfnb.png,2,"[-1,1,-1]",4,1,Symb,u,RT,0,0,80,2,2,99,99,u,0.5207,1,2,80,0,80,0,1,,,,,,,
,,,,,,,,,,,,,,,,,,,,3,2,2021-01-09_16h26.54.746,CL_C2S3,2020.1.3,Win32,60,,,,,h,1,0.518485,0,media/dcnb.png,2,"[-1,1,-1]",3,0,Symb,h,RT,0,0,81,2,2,99,99,h,0.518485,1,2,81,0,81,0,1,,,,,,,
,,,,,,,,,,,,,,,,,,,,3,2,2021-01-09_16h26.54.746,CL_C2S3,2020.1.3,Win32,60,,,,,h,1,0.388585,0,media/dcnb.png,2,"[-1,1,-1]",3,0,Symb,h,RT,0,0,82,2,2,99,99,h,0.388585,1,2,82,0,82,0,1,,,,,,,
,,,,,,,,,,,,,,,,,,,,3,2,2021-01-09_16h26.54.746,CL_C2S3,2020.1.3,Win32,60,,,,,i,1,0.686785,2,media/dknb.png,2,"[-1,1,-1]",5,0,Symb,i,RT,0,0,83,2,2,99,99,i,0.686785,1,2,83,0,83,0,1,,,,,,,
,,,,,,,,,,,,,,,,,,,,3,2,2021-01-09_16h26.54.746,CL_C2S3,2020.1.3,Win32,60,,,,,i,0,0.45362,2,media/dknb.png,1,"[1,-1,-1]",2,0,Symb,u,RT,0,0,84,2,2,99,99,i,0.45362,0,2,84,0,84,0,1,,,,,,,
,,,,,,,,,,,,,,,,,,,,3,2,2021-01-09_16h26.54.746,CL_C2S3,2020.1.3,Win32,60,,,,,i,1,0.70409,1,media/dfnb.png,1,"[1,-1,-1]",1,1,Symb,i,RT,0,0,85,2,2,99,99,i,0.70409,1,2,85,0,85,0,1,,,,,,,
,,,,,,,,,,,,,,,,,,,,3,2,2021-01-09_16h26.54.746,CL_C2S3,2020.1.3,Win32,60,,,,,h,1,0.504495,0,media/dcnb.png,2,"[-1,1,-1]",3,0,Symb,h,RT,0,0,86,2,2,99,99,h,0.504495,1,2,86,0,86,0,1,,,,,,,
,,,,,,,,,,,,,,,,,,,,3,2,2021-01-09_16h26.54.746,CL_C2S3,2020.1.3,Win32,60,,,,,i,1,0.85619,2,media/dknb.png,2,"[-1,1,-1]",5,0,Symb,i,RT,0,0,87,2,2,99,99,i,0.85619,1,2,87,0,87,0,1,,,,,,,
,,,,,,,,,,,,,,,,,,,,3,2,2021-01-09_16h26.54.746,CL_C2S3,2020.1.3,Win32,60,,,,,u,1,0.65268,1,media/dfnb.png,2,"[-1,1,-1]",4,1,Symb,u,RT,0,0,88,2,2,99,99,u,0.65268,1,2,88,0,88,0,1,,,,,,,
,,,,,,,,,,,,,,,,,,,,3,2,2021-01-09_16h26.54.746,CL_C2S3,2020.1.3,Win32,60,,,,,h,1,0.601675,0,media/dcnb.png,1,"[1,-1,-1]",0,0,Symb,h,RT,0,0,89,2,2,99,99,h,0.601675,1,2,89,0,89,0,1,,,,,,,
,,,,,,,,,,,,,,,,,,,,3,2,2021-01-09_16h26.54.746,CL_C2S3,2020.1.3,Win32,60,,,,,u,1,0.70438,2,media/dknb.png,1,"[1,-1,-1]",2,0,Symb,u,RT,0,0,90,2,2,99,99,u,0.70438,1,2,90,0,90,0,1,,,,,,,
,,,,,,,,,,,,,,,,,,,,3,2,2021-01-09_16h26.54.746,CL_C2S3,2020.1.3,Win32,60,,,,,i,1,0.82192,1,media/dfnb.png,1,"[1,-1,-1]",1,1,Symb,i,RT,0,0,91,2,2,99,99,i,0.82192,1,2,91,0,91,0,1,,,,,,,
,,,,,,,,,,,,,,,,,,,,3,2,2021-01-09_16h26.54.746,CL_C2S3,2020.1.3,Win32,60,,,,,u,1,0.75159,1,media/dfnb.png,2,"[-1,1,-1]",4,1,Symb,u,RT,0,0,92,2,2,99,99,u,0.75159,1,2,92,0,92,0,1,,,,,,,
,,,,,,,,,,,,,,,,,,,,3,2,2021-01-09_16h26.54.746,CL_C2S3,2020.1.3,Win32,60,,,,,h,1,0.40597,0,media/dcnb.png,1,"[1,-1,-1]",0,0,Symb,h,RT,0,0,93,2,2,99,99,h,0.40597,1,2,93,0,93,0,1,,,,,,,
,,,,,,,,,,,,,,,,,,,,3,2,2021-01-09_16h26.54.746,CL_C2S3,2020.1.3,Win32,60,,,,,i,1,0.79035,2,media/dknb.png,2,"[-1,1,-1]",5,0,Symb,i,RT,0,0,94,2,2,99,99,i,0.79035,1,2,94,0,94,0,1,,,,,,,
,,,,,,,,,,,,,,,,,,,,3,2,2021-01-09_16h26.54.746,CL_C2S3,2020.1.3,Win32,60,,,,,h,1,0.55274,0,media/dcnb.png,1,"[1,-1,-1]",0,0,Symb,h,RT,0,0,95,2,2,99,99,h,0.55274,1,2,95,0,95,0,1,,,,,,,
,,,,,,,,,,,,,,,,,,,,3,2,2021-01-09_16h26.54.746,CL_C2S3,2020.1.3,Win32,60,,,,,h,1,0.468115,0,media/dcnb.png,2,"[-1,1,-1]",3,0,Symb,h,RT,0,0,96,2,2,99,99,h,0.468115,1,2,96,0,96,0,1,,,,,,,
,,,,,,,,,,,,,,,,,,,,3,2,2021-01-09_16h26.54.746,CL_C2S3,2020.1.3,Win32,60,,,,,u,1,0.9358,2,media/dknb.png,1,"[1,-1,-1]",2,0,Symb,u,RT,0,0,97,2,2,99,99,u,0.9358,1,2,97,0,97,0,1,,,,,,,
,,,,,,,,,,,,,,,,,,,,3,2,2021-01-09_16h26.54.746,CL_C2S3,2020.1.3,Win32,60,,,,,i,1,0.63538,2,media/dknb.png,2,"[-1,1,-1]",5,0,Symb,i,RT,0,0,98,2,2,99,99,i,0.63538,1,2,98,0,98,0,1,,,,,,,
,,,,,,,,,,,,,,,,,,,,3,2,2021-01-09_16h26.54.746,CL_C2S3,2020.1.3,Win32,60,,,,,h,1,0.501895,0,media/dcnb.png,2,"[-1,1,-1]",3,0,Symb,h,RT,0,0,99,2,2,99,99,h,0.501895,1,2,99,0,99,0,1,,,,,,,
,,,,,,,,,,,,,,,,,,,,3,2,2021-01-09_16h26.54.746,CL_C2S3,2020.1.3,Win32,60,,,,,u,1,0.618805,1,media/dfnb.png,2,"[-1,1,-1]",4,1,Symb,u,RT,0,0,100,2,2,99,99,u,0.618805,1,2,100,0,100,0,1,,,,,,,
,,,,,,,,,,,,,,,,,,,,3,2,2021-01-09_16h26.54.746,CL_C2S3,2020.1.3,Win32,60,,,,,i,1,0.9433,1,media/dfnb.png,1,"[1,-1,-1]",1,1,Symb,i,RT,0,0,101,2,2,99,99,i,0.9433,1,2,101,0,101,0,1,,,,,,,
,,,,,,,,,,,,,,,,,,,,3,2,2021-01-09_16h26.54.746,CL_C2S3,2020.1.3,Win32,60,,,,,i,1,0.79769,1,media/dfnb.png,1,"[1,-1,-1]",1,1,Symb,i,RT,0,0,102,2,2,99,99,i,0.79769,1,2,102,0,102,0,1,,,,,,,
,,,,,,,,,,,,,,,,,,,,3,2,2021-01-09_16h26.54.746,CL_C2S3,2020.1.3,Win32,60,,,,,i,1,0.58523,2,media/dknb.png,2,"[-1,1,-1]",5,0,Symb,i,RT,0,0,103,2,2,99,99,i,0.58523,1,2,103,0,103,0,1,,,,,,,
,,,,,,,,,,,,,,,,,,,,3,2,2021-01-09_16h26.54.746,CL_C2S3,2020.1.3,Win32,60,,,,,i,1,0.65947,1,media/dfnb.png,1,"[1,-1,-1]",1,1,Symb,i,RT,0,0,104,2,2,99,99,i,0.65947,1,2,104,0,104,0,1,,,,,,,
,,,,,,,,,,,,,,,,,,,,3,2,2021-01-09_16h26.54.746,CL_C2S3,2020.1.3,Win32,60,,,,,u,1,0.580135,2,media/dknb.png,1,"[1,-1,-1]",2,0,Symb,u,RT,0,0,105,2,2,99,99,u,0.580135,1,2,105,0,105,0,1,,,,,,,
,,,,,,,,,,,,,,,,,,,,3,2,2021-01-09_16h26.54.746,CL_C2S3,2020.1.3,Win32,60,,,,,u,1,0.38272,2,media/dknb.png,1,"[1,-1,-1]",2,0,Symb,u,RT,0,0,106,2,2,99,99,u,0.38272,1,2,106,0,106,0,1,,,,,,,
,,,,,,,,,,,,,,,,,,,,3,2,2021-01-09_16h26.54.746,CL_C2S3,2020.1.3,Win32,60,,,,,h,1,0.499715,0,media/dcnb.png,1,"[1,-1,-1]",0,0,Symb,h,RT,0,0,107,2,2,99,99,h,0.499715,1,2,107,0,107,0,1,,,,,,,
,,,,,,,,,,,,,,,,,,,,3,2,2021-01-09_16h26.54.746,CL_C2S3,2020.1.3,Win32,60,,,,,h,1,0.384465,0,media/dcnb.png,2,"[-1,1,-1]",3,0,Symb,h,RT,0,0,108,2,2,99,99,h,0.384465,1,2,108,0,108,0,1,,,,,,,
,,,,,,,,,,,,,,,,,,,,3,2,2021-01-09_16h26.54.746,CL_C2S3,2020.1.3,Win32,60,,,,,i,1,0.684385,2,media/dknb.png,2,"[-1,1,-1]",5,0,Symb,i,RT,0,0,109,2,2,99,99,i,0.684385,1,2,109,0,109,0,1,,,,,,,
,,,,,,,,,,,,,,,,,,,,3,2,2021-01-09_16h26.54.746,CL_C2S3,2020.1.3,Win32,60,,,,,u,1,0.767655,1,media/dfnb.png,2,"[-1,1,-1]",4,1,Symb,u,RT,0,0,110,2,2,99,99,u,0.767655,1,2,110,0,110,0,1,,,,,,,
,,,,,,,,,,,,,,,,,,,,3,2,2021-01-09_16h26.54.746,CL_C2S3,2020.1.3,Win32,60,,,,,h,1,0.551115,0,media/dcnb.png,1,"[1,-1,-1]",0,0,Symb,h,RT,0,0,111,2,2,99,99,h,0.551115,1,2,111,0,111,0,1,,,,,,,
,,,,,,,,,,,,,,,,,,,,3,2,2021-01-09_16h26.54.746,CL_C2S3,2020.1.3,Win32,60,,,,,h,1,0.401055,0,media/dcnb.png,2,"[-1,1,-1]",3,0,Symb,h,RT,0,0,112,2,2,99,99,h,0.401055,1,2,112,0,112,0,1,,,,,,,
,,,,,,,,,,,,,,,,,,,,3,2,2021-01-09_16h26.54.746,CL_C2S3,2020.1.3,Win32,60,,,,,u,1,0.653195,1,media/dfnb.png,2,"[-1,1,-1]",4,1,Symb,u,RT,0,0,113,2,2,99,99,u,0.653195,1,2,113,0,113,0,1,,,,,,,
,,,,,,,,,,,,,,,,,,,,3,2,2021-01-09_16h26.54.746,CL_C2S3,2020.1.3,Win32,60,,,,,h,1,0.550655,0,media/dcnb.png,2,"[-1,1,-1]",3,0,Symb,h,RT,0,0,114,2,2,99,99,h,0.550655,1,2,114,0,114,0,1,,,,,,,
,,,,,,,,,,,,,,,,,,,,3,2,2021-01-09_16h26.54.746,CL_C2S3,2020.1.3,Win32,60,,,,,u,1,0.551395,1,media/dfnb.png,2,"[-1,1,-1]",4,1,Symb,u,RT,0,0,115,2,2,99,99,u,0.551395,1,2,115,0,115,0,1,,,,,,,
,,,,,,,,,,,,,,,,,,,,3,2,2021-01-09_16h26.54.746,CL_C2S3,2020.1.3,Win32,60,,,,,u,1,0.667735,2,media/dknb.png,1,"[1,-1,-1]",2,0,Symb,u,RT,0,0,116,2,2,99,99,u,0.667735,1,2,116,0,116,0,1,,,,,,,
,,,,,,,,,,,,,,,,,,,,3,2,2021-01-09_16h26.54.746,CL_C2S3,2020.1.3,Win32,60,,,,,i,1,0.557905,2,media/dknb.png,2,"[-1,1,-1]",5,0,Symb,i,RT,0,0,117,2,2,99,99,i,0.557905,1,2,117,0,117,0,1,,,,,,,
,,,,,,,,,,,,,,,,,,,,3,2,2021-01-09_16h26.54.746,CL_C2S3,2020.1.3,Win32,60,,,,,h,1,0.49808,0,media/dcnb.png,1,"[1,-1,-1]",0,0,Symb,h,RT,0,0,118,2,2,99,99,h,0.49808,1,2,118,0,118,0,1,,,,,,,
,,,,,,,,,,,,,,,,,,,,3,2,2021-01-09_16h26.54.746,CL_C2S3,2020.1.3,Win32,60,,,,,i,1,0.717655,1,media/dfnb.png,1,"[1,-1,-1]",1,1,Symb,i,RT,0,0,119,2,2,99,99,i,0.717655,1,2,119,0,119,0,1,,,,,,,
,,,,,,,,,,,,,,,,,,,,3,2,2021-01-09_16h26.54.746,CL_C2S3,2020.1.3,Win32,60,,,,,,,,,,,,,,,,,,,,,,,,,,,,,,,,,1,0,1,0,1,,
,,,,,,,,,,,,,,,,,,,,3,2,2021-01-09_16h26.54.746,CL_C2S3,2020.1.3,Win32,60,,,h,3.98426,u,1,0.735205,1,media/dfnb.png,2,"[-1,1,-1]",4,1,Symb,u,RT,0,0,0,2,3,99,99,u,0.735205,1,2,0,0,0,0,1,,,,,,,
,,,,,,,,,,,,,,,,,,,,3,2,2021-01-09_16h26.54.746,CL_C2S3,2020.1.3,Win32,60,,,,,u,1,0.748855,2,media/dknb.png,1,"[1,-1,-1]",2,0,Symb,u,RT,0,0,1,2,3,99,99,u,0.748855,1,2,1,0,1,0,1,,,,,,,
,,,,,,,,,,,,,,,,,,,,3,2,2021-01-09_16h26.54.746,CL_C2S3,2020.1.3,Win32,60,,,,,u,1,0.703235,1,media/dfnb.png,2,"[-1,1,-1]",4,1,Symb,u,RT,0,0,2,2,3,99,99,u,0.703235,1,2,2,0,2,0,1,,,,,,,
,,,,,,,,,,,,,,,,,,,,3,2,2021-01-09_16h26.54.746,CL_C2S3,2020.1.3,Win32,60,,,,,h,1,0.602095,0,media/dcnb.png,2,"[-1,1,-1]",3,0,Symb,h,RT,0,0,3,2,3,99,99,h,0.602095,1,2,3,0,3,0,1,,,,,,,
,,,,,,,,,,,,,,,,,,,,3,2,2021-01-09_16h26.54.746,CL_C2S3,2020.1.3,Win32,60,,,,,u,1,0.71878,2,media/dknb.png,1,"[1,-1,-1]",2,0,Symb,u,RT,0,0,4,2,3,99,99,u,0.71878,1,2,4,0,4,0,1,,,,,,,
,,,,,,,,,,,,,,,,,,,,3,2,2021-01-09_16h26.54.746,CL_C2S3,2020.1.3,Win32,60,,,,,i,1,0.54353,2,media/dknb.png,2,"[-1,1,-1]",5,0,Symb,i,RT,0,0,5,2,3,99,99,i,0.54353,1,2,5,0,5,0,1,,,,,,,
,,,,,,,,,,,,,,,,,,,,3,2,2021-01-09_16h26.54.746,CL_C2S3,2020.1.3,Win32,60,,,,,h,1,0.584285,0,media/dcnb.png,1,"[1,-1,-1]",0,0,Symb,h,RT,0,0,6,2,3,99,99,h,0.584285,1,2,6,0,6,0,1,,,,,,,
,,,,,,,,,,,,,,,,,,,,3,2,2021-01-09_16h26.54.746,CL_C2S3,2020.1.3,Win32,60,,,,,h,1,0.538035,0,media/dcnb.png,1,"[1,-1,-1]",0,0,Symb,h,RT,0,0,7,2,3,99,99,h,0.538035,1,2,7,0,7,0,1,,,,,,,
,,,,,,,,,,,,,,,,,,,,3,2,2021-01-09_16h26.54.746,CL_C2S3,2020.1.3,Win32,60,,,,,i,1,0.671095,2,media/dknb.png,2,"[-1,1,-1]",5,0,Symb,i,RT,0,0,8,2,3,99,99,i,0.671095,1,2,8,0,8,0,1,,,,,,,
,,,,,,,,,,,,,,,,,,,,3,2,2021-01-09_16h26.54.746,CL_C2S3,2020.1.3,Win32,60,,,,,i,1,0.615955,1,media/dfnb.png,1,"[1,-1,-1]",1,1,Symb,i,RT,0,0,9,2,3,99,99,i,0.615955,1,2,9,0,9,0,1,,,,,,,
,,,,,,,,,,,,,,,,,,,,3,2,2021-01-09_16h26.54.746,CL_C2S3,2020.1.3,Win32,60,,,,,i,1,0.4545,1,media/dfnb.png,1,"[1,-1,-1]",1,1,Symb,i,RT,0,0,10,2,3,99,99,i,0.4545,1,2,10,0,10,0,1,,,,,,,
,,,,,,,,,,,,,,,,,,,,3,2,2021-01-09_16h26.54.746,CL_C2S3,2020.1.3,Win32,60,,,,,h,1,0.513015,0,media/dcnb.png,2,"[-1,1,-1]",3,0,Symb,h,RT,0,0,11,2,3,99,99,h,0.513015,1,2,11,0,11,0,1,,,,,,,
,,,,,,,,,,,,,,,,,,,,3,2,2021-01-09_16h26.54.746,CL_C2S3,2020.1.3,Win32,60,,,,,h,1,0.367775,0,media/dcnb.png,2,"[-1,1,-1]",3,0,Symb,h,RT,0,0,12,2,3,99,99,h,0.367775,1,2,12,0,12,0,1,,,,,,,
,,,,,,,,,,,,,,,,,,,,3,2,2021-01-09_16h26.54.746,CL_C2S3,2020.1.3,Win32,60,,,,,h,1,0.451045,0,media/dcnb.png,1,"[1,-1,-1]",0,0,Symb,h,RT,0,0,13,2,3,99,99,h,0.451045,1,2,13,0,13,0,1,,,,,,,
,,,,,,,,,,,,,,,,,,,,3,2,2021-01-09_16h26.54.746,CL_C2S3,2020.1.3,Win32,60,,,,,i,1,0.717765,2,media/dknb.png,2,"[-1,1,-1]",5,0,Symb,i,RT,0,0,14,2,3,99,99,i,0.717765,1,2,14,0,14,0,1,,,,,,,
,,,,,,,,,,,,,,,,,,,,3,2,2021-01-09_16h26.54.746,CL_C2S3,2020.1.3,Win32,60,,,,,u,1,1.11741,1,media/dfnb.png,2,"[-1,1,-1]",4,1,Symb,u,RT,0,0,15,2,3,99,99,u,1.11741,1,2,15,0,15,0,1,,,,,,,
,,,,,,,,,,,,,,,,,,,,3,2,2021-01-09_16h26.54.746,CL_C2S3,2020.1.3,Win32,60,,,,,i,1,0.68385,2,media/dknb.png,2,"[-1,1,-1]",5,0,Symb,i,RT,0,0,16,2,3,99,99,i,0.68385,1,2,16,0,16,0,1,,,,,,,
,,,,,,,,,,,,,,,,,,,,3,2,2021-01-09_16h26.54.746,CL_C2S3,2020.1.3,Win32,60,,,,,u,1,0.53434,1,media/dfnb.png,2,"[-1,1,-1]",4,1,Symb,u,RT,0,0,17,2,3,99,99,u,0.53434,1,2,17,0,17,0,1,,,,,,,
,,,,,,,,,,,,,,,,,,,,3,2,2021-01-09_16h26.54.746,CL_C2S3,2020.1.3,Win32,60,,,,,i,1,0.904785,1,media/dfnb.png,1,"[1,-1,-1]",1,1,Symb,i,RT,0,0,18,2,3,99,99,i,0.904785,1,2,18,0,18,0,1,,,,,,,
,,,,,,,,,,,,,,,,,,,,3,2,2021-01-09_16h26.54.746,CL_C2S3,2020.1.3,Win32,60,,,,,h,1,0.534285,0,media/dcnb.png,2,"[-1,1,-1]",3,0,Symb,h,RT,0,0,19,2,3,99,99,h,0.534285,1,2,19,0,19,0,1,,,,,,,
,,,,,,,,,,,,,,,,,,,,3,2,2021-01-09_16h26.54.746,CL_C2S3,2020.1.3,Win32,60,,,,,h,1,0.43547,0,media/dcnb.png,1,"[1,-1,-1]",0,0,Symb,h,RT,0,0,20,2,3,99,99,h,0.43547,1,2,20,0,20,0,1,,,,,,,
,,,,,,,,,,,,,,,,,,,,3,2,2021-01-09_16h26.54.746,CL_C2S3,2020.1.3,Win32,60,,,,,u,1,0.70104,2,media/dknb.png,1,"[1,-1,-1]",2,0,Symb,u,RT,0,0,21,2,3,99,99,u,0.70104,1,2,21,0,21,0,1,,,,,,,
,,,,,,,,,,,,,,,,,,,,3,2,2021-01-09_16h26.54.746,CL_C2S3,2020.1.3,Win32,60,,,,,i,1,0.61001,1,media/dfnb.png,1,"[1,-1,-1]",1,1,Symb,i,RT,0,0,22,2,3,99,99,i,0.61001,1,2,22,0,22,0,1,,,,,,,
,,,,,,,,,,,,,,,,,,,,3,2,2021-01-09_16h26.54.746,CL_C2S3,2020.1.3,Win32,60,,,,,u,1,0.722465,2,media/dknb.png,1,"[1,-1,-1]",2,0,Symb,u,RT,0,0,23,2,3,99,99,u,0.722465,1,2,23,0,23,0,1,,,,,,,
,,,,,,,,,,,,,,,,,,,,3,2,2021-01-09_16h26.54.746,CL_C2S3,2020.1.3,Win32,60,,,,,i,1,0.597205,2,media/dknb.png,2,"[-1,1,-1]",5,0,Symb,i,RT,0,0,24,2,3,99,99,i,0.597205,1,2,24,0,24,0,1,,,,,,,
,,,,,,,,,,,,,,,,,,,,3,2,2021-01-09_16h26.54.746,CL_C2S3,2020.1.3,Win32,60,,,,,u,1,0.625365,2,media/dknb.png,1,"[1,-1,-1]",2,0,Symb,u,RT,0,0,25,2,3,99,99,u,0.625365,1,2,25,0,25,0,1,,,,,,,
,,,,,,,,,,,,,,,,,,,,3,2,2021-01-09_16h26.54.746,CL_C2S3,2020.1.3,Win32,60,,,,,u,1,0.635445,1,media/dfnb.png,2,"[-1,1,-1]",4,1,Symb,u,RT,0,0,26,2,3,99,99,u,0.635445,1,2,26,0,26,0,1,,,,,,,
,,,,,,,,,,,,,,,,,,,,3,2,2021-01-09_16h26.54.746,CL_C2S3,2020.1.3,Win32,60,,,,,h,1,0.50203,0,media/dcnb.png,1,"[1,-1,-1]",0,0,Symb,h,RT,0,0,27,2,3,99,99,h,0.50203,1,2,27,0,27,0,1,,,,,,,
,,,,,,,,,,,,,,,,,,,,3,2,2021-01-09_16h26.54.746,CL_C2S3,2020.1.3,Win32,60,,,,,h,1,0.384755,0,media/dcnb.png,2,"[-1,1,-1]",3,0,Symb,h,RT,0,0,28,2,3,99,99,h,0.384755,1,2,28,0,28,0,1,,,,,,,
,,,,,,,,,,,,,,,,,,,,3,2,2021-01-09_16h26.54.746,CL_C2S3,2020.1.3,Win32,60,,,,,i,1,0.66783,1,media/dfnb.png,1,"[1,-1,-1]",1,1,Symb,i,RT,0,0,29,2,3,99,99,i,0.66783,1,2,29,0,29,0,1,,,,,,,
,,,,,,,,,,,,,,,,,,,,3,2,2021-01-09_16h26.54.746,CL_C2S3,2020.1.3,Win32,60,,,,,h,1,0.604265,0,media/dcnb.png,1,"[1,-1,-1]",0,0,Symb,h,RT,0,0,30,2,3,99,99,h,0.604265,1,2,30,0,30,0,1,,,,,,,
,,,,,,,,,,,,,,,,,,,,3,2,2021-01-09_16h26.54.746,CL_C2S3,2020.1.3,Win32,60,,,,,u,1,0.52076,1,media/dfnb.png,2,"[-1,1,-1]",4,1,Symb,u,RT,0,0,31,2,3,99,99,u,0.52076,1,2,31,0,31,0,1,,,,,,,
,,,,,,,,,,,,,,,,,,,,3,2,2021-01-09_16h26.54.746,CL_C2S3,2020.1.3,Win32,60,,,,,h,1,0.53546,0,media/dcnb.png,1,"[1,-1,-1]",0,0,Symb,h,RT,0,0,32,2,3,99,99,h,0.53546,1,2,32,0,32,0,1,,,,,,,
,,,,,,,,,,,,,,,,,,,,3,2,2021-01-09_16h26.54.746,CL_C2S3,2020.1.3,Win32,60,,,,,i,1,0.635305,1,media/dfnb.png,1,"[1,-1,-1]",1,1,Symb,i,RT,0,0,33,2,3,99,99,i,0.635305,1,2,33,0,33,0,1,,,,,,,
,,,,,,,,,,,,,,,,,,,,3,2,2021-01-09_16h26.54.746,CL_C2S3,2020.1.3,Win32,60,,,,,u,1,0.65327,2,media/dknb.png,1,"[1,-1,-1]",2,0,Symb,u,RT,0,0,34,2,3,99,99,u,0.65327,1,2,34,0,34,0,1,,,,,,,
,,,,,,,,,,,,,,,,,,,,3,2,2021-01-09_16h26.54.746,CL_C2S3,2020.1.3,Win32,60,,,,,i,1,0.721435,1,media/dfnb.png,1,"[1,-1,-1]",1,1,Symb,i,RT,0,0,35,2,3,99,99,i,0.721435,1,2,35,0,35,0,1,,,,,,,
,,,,,,,,,,,,,,,,,,,,3,2,2021-01-09_16h26.54.746,CL_C2S3,2020.1.3,Win32,60,,,,,h,1,0.50115,0,media/dcnb.png,2,"[-1,1,-1]",3,0,Symb,h,RT,0,0,36,2,3,99,99,h,0.50115,1,2,36,0,36,0,1,,,,,,,
,,,,,,,,,,,,,,,,,,,,3,2,2021-01-09_16h26.54.746,CL_C2S3,2020.1.3,Win32,60,,,,,i,1,0.661645,2,media/dknb.png,2,"[-1,1,-1]",5,0,Symb,i,RT,0,0,37,2,3,99,99,i,0.661645,1,2,37,0,37,0,1,,,,,,,
,,,,,,,,,,,,,,,,,,,,3,2,2021-01-09_16h26.54.746,CL_C2S3,2020.1.3,Win32,60,,,,,u,1,0.685745,2,media/dknb.png,1,"[1,-1,-1]",2,0,Symb,u,RT,0,0,38,2,3,99,99,u,0.685745,1,2,38,0,38,0,1,,,,,,,
,,,,,,,,,,,,,,,,,,,,3,2,2021-01-09_16h26.54.746,CL_C2S3,2020.1.3,Win32,60,,,,,i,1,0.51763,2,media/dknb.png,2,"[-1,1,-1]",5,0,Symb,i,RT,0,0,39,2,3,99,99,i,0.51763,1,2,39,0,39,0,1,,,,,,,
,,,,,,,,,,,,,,,,,,,,3,2,2021-01-09_16h26.54.746,CL_C2S3,2020.1.3,Win32,60,,,,,u,1,0.600695,1,media/dfnb.png,2,"[-1,1,-1]",4,1,Symb,u,RT,0,0,40,2,3,99,99,u,0.600695,1,2,40,0,40,0,1,,,,,,,
,,,,,,,,,,,,,,,,,,,,3,2,2021-01-09_16h26.54.746,CL_C2S3,2020.1.3,Win32,60,,,,,h,1,0.517585,0,media/dcnb.png,2,"[-1,1,-1]",3,0,Symb,h,RT,0,0,41,2,3,99,99,h,0.517585,1,2,41,0,41,0,1,,,,,,,
,,,,,,,,,,,,,,,,,,,,3,2,2021-01-09_16h26.54.746,CL_C2S3,2020.1.3,Win32,60,,,,,i,1,0.65645,1,media/dfnb.png,1,"[1,-1,-1]",1,1,Symb,i,RT,0,0,42,2,3,99,99,i,0.65645,1,2,42,0,42,0,1,,,,,,,
,,,,,,,,,,,,,,,,,,,,3,2,2021-01-09_16h26.54.746,CL_C2S3,2020.1.3,Win32,60,,,,,u,1,0.684265,2,media/dknb.png,1,"[1,-1,-1]",2,0,Symb,u,RT,0,0,43,2,3,99,99,u,0.684265,1,2,43,0,43,0,1,,,,,,,
,,,,,,,,,,,,,,,,,,,,3,2,2021-01-09_16h26.54.746,CL_C2S3,2020.1.3,Win32,60,,,,,u,1,0.51753,2,media/dknb.png,1,"[1,-1,-1]",2,0,Symb,u,RT,0,0,44,2,3,99,99,u,0.51753,1,2,44,0,44,0,1,,,,,,,
,,,,,,,,,,,,,,,,,,,,3,2,2021-01-09_16h26.54.746,CL_C2S3,2020.1.3,Win32,60,,,,,u,1,0.603495,1,media/dfnb.png,2,"[-1,1,-1]",4,1,Symb,u,RT,0,0,45,2,3,99,99,u,0.603495,1,2,45,0,45,0,1,,,,,,,
,,,,,,,,,,,,,,,,,,,,3,2,2021-01-09_16h26.54.746,CL_C2S3,2020.1.3,Win32,60,,,,,h,1,0.602415,0,media/dcnb.png,1,"[1,-1,-1]",0,0,Symb,h,RT,0,0,46,2,3,99,99,h,0.602415,1,2,46,0,46,0,1,,,,,,,
,,,,,,,,,,,,,,,,,,,,3,2,2021-01-09_16h26.54.746,CL_C2S3,2020.1.3,Win32,60,,,,,h,1,0.420885,0,media/dcnb.png,1,"[1,-1,-1]",0,0,Symb,h,RT,0,0,47,2,3,99,99,h,0.420885,1,2,47,0,47,0,1,,,,,,,
,,,,,,,,,,,,,,,,,,,,3,2,2021-01-09_16h26.54.746,CL_C2S3,2020.1.3,Win32,60,,,,,h,1,0.568005,0,media/dcnb.png,2,"[-1,1,-1]",3,0,Symb,h,RT,0,0,48,2,3,99,99,h,0.568005,1,2,48,0,48,0,1,,,,,,,
,,,,,,,,,,,,,,,,,,,,3,2,2021-01-09_16h26.54.746,CL_C2S3,2020.1.3,Win32,60,,,,,i,1,0.635155,1,media/dfnb.png,1,"[1,-1,-1]",1,1,Symb,i,RT,0,0,49,2,3,99,99,i,0.635155,1,2,49,0,49,0,1,,,,,,,
,,,,,,,,,,,,,,,,,,,,3,2,2021-01-09_16h26.54.746,CL_C2S3,2020.1.3,Win32,60,,,,,i,1,0.922045,2,media/dknb.png,2,"[-1,1,-1]",5,0,Symb,i,RT,0,0,50,2,3,99,99,i,0.922045,1,2,50,0,50,0,1,,,,,,,
,,,,,,,,,,,,,,,,,,,,3,2,2021-01-09_16h26.54.746,CL_C2S3,2020.1.3,Win32,60,,,,,h,1,0.579915,0,media/dcnb.png,2,"[-1,1,-1]",3,0,Symb,h,RT,0,0,51,2,3,99,99,h,0.579915,1,2,51,0,51,0,1,,,,,,,
,,,,,,,,,,,,,,,,,,,,3,2,2021-01-09_16h26.54.746,CL_C2S3,2020.1.3,Win32,60,,,,,u,1,0.489095,1,media/dfnb.png,2,"[-1,1,-1]",4,1,Symb,u,RT,0,0,52,2,3,99,99,u,0.489095,1,2,52,0,52,0,1,,,,,,,
,,,,,,,,,,,,,,,,,,,,3,2,2021-01-09_16h26.54.746,CL_C2S3,2020.1.3,Win32,60,,,,,i,1,0.48836,2,media/dknb.png,2,"[-1,1,-1]",5,0,Symb,i,RT,0,0,53,2,3,99,99,i,0.48836,1,2,53,0,53,0,1,,,,,,,
,,,,,,,,,,,,,,,,,,,,3,2,2021-01-09_16h26.54.746,CL_C2S3,2020.1.3,Win32,60,,,,,i,1,0.638035,1,media/dfnb.png,1,"[1,-1,-1]",1,1,Symb,i,RT,0,0,54,2,3,99,99,i,0.638035,1,2,54,0,54,0,1,,,,,,,
,,,,,,,,,,,,,,,,,,,,3,2,2021-01-09_16h26.54.746,CL_C2S3,2020.1.3,Win32,60,,,,,u,1,0.48833,1,media/dfnb.png,2,"[-1,1,-1]",4,1,Symb,u,RT,0,0,55,2,3,99,99,u,0.48833,1,2,55,0,55,0,1,,,,,,,
,,,,,,,,,,,,,,,,,,,,3,2,2021-01-09_16h26.54.746,CL_C2S3,2020.1.3,Win32,60,,,,,h,1,0.40141,0,media/dcnb.png,1,"[1,-1,-1]",0,0,Symb,h,RT,0,0,56,2,3,99,99,h,0.40141,1,2,56,0,56,0,1,,,,,,,
,,,,,,,,,,,,,,,,,,,,3,2,2021-01-09_16h26.54.746,CL_C2S3,2020.1.3,Win32,60,,,,,i,1,0.56733,2,media/dknb.png,2,"[-1,1,-1]",5,0,Symb,i,RT,0,0,57,2,3,99,99,i,0.56733,1,2,57,0,57,0,1,,,,,,,
,,,,,,,,,,,,,,,,,,,,3,2,2021-01-09_16h26.54.746,CL_C2S3,2020.1.3,Win32,60,,,,,h,1,0.48486,0,media/dcnb.png,2,"[-1,1,-1]",3,0,Symb,h,RT,0,0,58,2,3,99,99,h,0.48486,1,2,58,0,58,0,1,,,,,,,
,,,,,,,,,,,,,,,,,,,,3,2,2021-01-09_16h26.54.746,CL_C2S3,2020.1.3,Win32,60,,,,,u,1,0.650985,2,media/dknb.png,1,"[1,-1,-1]",2,0,Symb,u,RT,0,0,59,2,3,99,99,u,0.650985,1,2,59,0,59,0,1,,,,,,,
,,,,,,,,,,,,,,,,,,,,3,2,2021-01-09_16h26.54.746,CL_C2S3,2020.1.3,Win32,60,,,,,u,1,0.600805,2,media/dknb.png,1,"[1,-1,-1]",2,0,Symb,u,RT,0,0,60,2,3,99,99,u,0.600805,1,2,60,0,60,0,1,,,,,,,
,,,,,,,,,,,,,,,,,,,,3,2,2021-01-09_16h26.54.746,CL_C2S3,2020.1.3,Win32,60,,,,,h,1,0.58449,0,media/dcnb.png,2,"[-1,1,-1]",3,0,Symb,h,RT,0,0,61,2,3,99,99,h,0.58449,1,2,61,0,61,0,1,,,,,,,
,,,,,,,,,,,,,,,,,,,,3,2,2021-01-09_16h26.54.746,CL_C2S3,2020.1.3,Win32,60,,,,,h,1,0.68432,0,media/dcnb.png,1,"[1,-1,-1]",0,0,Symb,h,RT,0,0,62,2,3,99,99,h,0.68432,1,2,62,0,62,0,1,,,,,,,
,,,,,,,,,,,,,,,,,,,,3,2,2021-01-09_16h26.54.746,CL_C2S3,2020.1.3,Win32,60,,,,,u,1,0.47237,1,media/dfnb.png,2,"[-1,1,-1]",4,1,Symb,u,RT,0,0,63,2,3,99,99,u,0.47237,1,2,63,0,63,0,1,,,,,,,
,,,,,,,,,,,,,,,,,,,,3,2,2021-01-09_16h26.54.746,CL_C2S3,2020.1.3,Win32,60,,,,,i,1,0.699695,2,media/dknb.png,2,"[-1,1,-1]",5,0,Symb,i,RT,0,0,64,2,3,99,99,i,0.699695,1,2,64,0,64,0,1,,,,,,,
,,,,,,,,,,,,,,,,,,,,3,2,2021-01-09_16h26.54.746,CL_C2S3,2020.1.3,Win32,60,,,,,u,0,0.46771,1,media/dfnb.png,1,"[1,-1,-1]",1,1,Symb,i,RT,0,0,65,2,3,99,99,u,0.46771,0,2,65,0,65,0,1,,,,,,,
,,,,,,,,,,,,,,,,,,,,3,2,2021-01-09_16h26.54.746,CL_C2S3,2020.1.3,Win32,60,,,,,u,1,0.587115,1,media/dfnb.png,2,"[-1,1,-1]",4,1,Symb,u,RT,0,0,66,2,3,99,99,u,0.587115,1,2,66,0,66,0,1,,,,,,,
,,,,,,,,,,,,,,,,,,,,3,2,2021-01-09_16h26.54.746,CL_C2S3,2020.1.3,Win32,60,,,,,h,1,0.470055,0,media/dcnb.png,2,"[-1,1,-1]",3,0,Symb,h,RT,0,0,67,2,3,99,99,h,0.470055,1,2,67,0,67,0,1,,,,,,,
,,,,,,,,,,,,,,,,,,,,3,2,2021-01-09_16h26.54.746,CL_C2S3,2020.1.3,Win32,60,,,,,i,1,0.518885,2,media/dknb.png,2,"[-1,1,-1]",5,0,Symb,i,RT,0,0,68,2,3,99,99,i,0.518885,1,2,68,0,68,0,1,,,,,,,
,,,,,,,,,,,,,,,,,,,,3,2,2021-01-09_16h26.54.746,CL_C2S3,2020.1.3,Win32,60,,,,,h,1,0.53672,0,media/dcnb.png,1,"[1,-1,-1]",0,0,Symb,h,RT,0,0,69,2,3,99,99,h,0.53672,1,2,69,0,69,0,1,,,,,,,
,,,,,,,,,,,,,,,,,,,,3,2,2021-01-09_16h26.54.746,CL_C2S3,2020.1.3,Win32,60,,,,,i,1,0.72043,1,media/dfnb.png,1,"[1,-1,-1]",1,1,Symb,i,RT,0,0,70,2,3,99,99,i,0.72043,1,2,70,0,70,0,1,,,,,,,
,,,,,,,,,,,,,,,,,,,,3,2,2021-01-09_16h26.54.746,CL_C2S3,2020.1.3,Win32,60,,,,,u,1,0.74422,2,media/dknb.png,1,"[1,-1,-1]",2,0,Symb,u,RT,0,0,71,2,3,99,99,u,0.74422,1,2,71,0,71,0,1,,,,,,,
,,,,,,,,,,,,,,,,,,,,3,2,2021-01-09_16h26.54.746,CL_C2S3,2020.1.3,Win32,60,,,,,i,1,0.737995,1,media/dfnb.png,1,"[1,-1,-1]",1,1,Symb,i,RT,0,0,72,2,3,99,99,i,0.737995,1,2,72,0,72,0,1,,,,,,,
,,,,,,,,,,,,,,,,,,,,3,2,2021-01-09_16h26.54.746,CL_C2S3,2020.1.3,Win32,60,,,,,h,1,0.53798,0,media/dcnb.png,2,"[-1,1,-1]",3,0,Symb,h,RT,0,0,73,2,3,99,99,h,0.53798,1,2,73,0,73,0,1,,,,,,,
,,,,,,,,,,,,,,,,,,,,3,2,2021-01-09_16h26.54.746,CL_C2S3,2020.1.3,Win32,60,,,,,i,1,0.618345,2,media/dknb.png,2,"[-1,1,-1]",5,0,Symb,i,RT,0,0,74,2,3,99,99,i,0.618345,1,2,74,0,74,0,1,,,,,,,
,,,,,,,,,,,,,,,,,,,,3,2,2021-01-09_16h26.54.746,CL_C2S3,2020.1.3,Win32,60,,,,,h,1,0.53889,0,media/dcnb.png,1,"[1,-1,-1]",0,0,Symb,h,RT,0,0,75,2,3,99,99,h,0.53889,1,2,75,0,75,0,1,,,,,,,
,,,,,,,,,,,,,,,,,,,,3,2,2021-01-09_16h26.54.746,CL_C2S3,2020.1.3,Win32,60,,,,,u,1,0.48751,1,media/dfnb.png,2,"[-1,1,-1]",4,1,Symb,u,RT,0,0,76,2,3,99,99,u,0.48751,1,2,76,0,76,0,1,,,,,,,
,,,,,,,,,,,,,,,,,,,,3,2,2021-01-09_16h26.54.746,CL_C2S3,2020.1.3,Win32,60,,,,,i,0,0.485225,2,media/dknb.png,1,"[1,-1,-1]",2,0,Symb,u,RT,0,0,77,2,3,99,99,i,0.485225,0,2,77,0,77,0,1,,,,,,,
,,,,,,,,,,,,,,,,,,,,3,2,2021-01-09_16h26.54.746,CL_C2S3,2020.1.3,Win32,60,,,,,h,1,0.635045,0,media/dcnb.png,1,"[1,-1,-1]",0,0,Symb,h,RT,0,0,78,2,3,99,99,h,0.635045,1,2,78,0,78,0,1,,,,,,,
,,,,,,,,,,,,,,,,,,,,3,2,2021-01-09_16h26.54.746,CL_C2S3,2020.1.3,Win32,60,,,,,i,1,0.667995,2,media/dknb.png,2,"[-1,1,-1]",5,0,Symb,i,RT,0,0,79,2,3,99,99,i,0.667995,1,2,79,0,79,0,1,,,,,,,
,,,,,,,,,,,,,,,,,,,,3,2,2021-01-09_16h26.54.746,CL_C2S3,2020.1.3,Win32,60,,,,,u,1,0.63484,2,media/dknb.png,1,"[1,-1,-1]",2,0,Symb,u,RT,0,0,80,2,3,99,99,u,0.63484,1,2,80,0,80,0,1,,,,,,,
,,,,,,,,,,,,,,,,,,,,3,2,2021-01-09_16h26.54.746,CL_C2S3,2020.1.3,Win32,60,,,,,u,1,0.954155,1,media/dfnb.png,2,"[-1,1,-1]",4,1,Symb,u,RT,0,0,81,2,3,99,99,u,0.954155,1,2,81,0,81,0,1,,,,,,,
,,,,,,,,,,,,,,,,,,,,3,2,2021-01-09_16h26.54.746,CL_C2S3,2020.1.3,Win32,60,,,,,i,1,0.770425,1,media/dfnb.png,1,"[1,-1,-1]",1,1,Symb,i,RT,0,0,82,2,3,99,99,i,0.770425,1,2,82,0,82,0,1,,,,,,,
,,,,,,,,,,,,,,,,,,,,3,2,2021-01-09_16h26.54.746,CL_C2S3,2020.1.3,Win32,60,,,,,h,1,0.52254,0,media/dcnb.png,2,"[-1,1,-1]",3,0,Symb,h,RT,0,0,83,2,3,99,99,h,0.52254,1,2,83,0,83,0,1,,,,,,,
,,,,,,,,,,,,,,,,,,,,3,2,2021-01-09_16h26.54.746,CL_C2S3,2020.1.3,Win32,60,,,,,h,1,0.57012,0,media/dcnb.png,2,"[-1,1,-1]",3,0,Symb,h,RT,0,0,84,2,3,99,99,h,0.57012,1,2,84,0,84,0,1,,,,,,,
,,,,,,,,,,,,,,,,,,,,3,2,2021-01-09_16h26.54.746,CL_C2S3,2020.1.3,Win32,60,,,,,u,1,0.842815,2,media/dknb.png,1,"[1,-1,-1]",2,0,Symb,u,RT,0,0,85,2,3,99,99,u,0.842815,1,2,85,0,85,0,1,,,,,,,
,,,,,,,,,,,,,,,,,,,,3,2,2021-01-09_16h26.54.746,CL_C2S3,2020.1.3,Win32,60,,,,,i,1,0.702465,1,media/dfnb.png,1,"[1,-1,-1]",1,1,Symb,i,RT,0,0,86,2,3,99,99,i,0.702465,1,2,86,0,86,0,1,,,,,,,
,,,,,,,,,,,,,,,,,,,,3,2,2021-01-09_16h26.54.746,CL_C2S3,2020.1.3,Win32,60,,,,,i,1,0.686475,2,media/dknb.png,2,"[-1,1,-1]",5,0,Symb,i,RT,0,0,87,2,3,99,99,i,0.686475,1,2,87,0,87,0,1,,,,,,,
,,,,,,,,,,,,,,,,,,,,3,2,2021-01-09_16h26.54.746,CL_C2S3,2020.1.3,Win32,60,,,,,u,1,0.66789,1,media/dfnb.png,2,"[-1,1,-1]",4,1,Symb,u,RT,0,0,88,2,3,99,99,u,0.66789,1,2,88,0,88,0,1,,,,,,,
,,,,,,,,,,,,,,,,,,,,3,2,2021-01-09_16h26.54.746,CL_C2S3,2020.1.3,Win32,60,,,,,h,1,0.50482,0,media/dcnb.png,1,"[1,-1,-1]",0,0,Symb,h,RT,0,0,89,2,3,99,99,h,0.50482,1,2,89,0,89,0,1,,,,,,,
,,,,,,,,,,,,,,,,,,,,3,2,2021-01-09_16h26.54.746,CL_C2S3,2020.1.3,Win32,60,,,,,i,1,1.138905,2,media/dknb.png,2,"[-1,1,-1]",5,0,Symb,i,RT,0,0,90,2,3,99,99,i,1.138905,1,2,90,0,90,0,1,,,,,,,
,,,,,,,,,,,,,,,,,,,,3,2,2021-01-09_16h26.54.746,CL_C2S3,2020.1.3,Win32,60,,,,,h,1,0.939175,0,media/dcnb.png,1,"[1,-1,-1]",0,0,Symb,h,RT,0,0,91,2,3,99,99,h,0.939175,1,2,91,0,91,0,1,,,,,,,
,,,,,,,,,,,,,,,,,,,,3,2,2021-01-09_16h26.54.746,CL_C2S3,2020.1.3,Win32,60,,,,,i,1,0.53095,2,media/dknb.png,2,"[-1,1,-1]",5,0,Symb,i,RT,0,0,92,2,3,99,99,i,0.53095,1,2,92,0,92,0,1,,,,,,,
,,,,,,,,,,,,,,,,,,,,3,2,2021-01-09_16h26.54.746,CL_C2S3,2020.1.3,Win32,60,,,,,h,1,0.45699,0,media/dcnb.png,2,"[-1,1,-1]",3,0,Symb,h,RT,0,0,93,2,3,99,99,h,0.45699,1,2,93,0,93,0,1,,,,,,,
,,,,,,,,,,,,,,,,,,,,3,2,2021-01-09_16h26.54.746,CL_C2S3,2020.1.3,Win32,60,,,,,u,1,0.441565,1,media/dfnb.png,2,"[-1,1,-1]",4,1,Symb,u,RT,0,0,94,2,3,99,99,u,0.441565,1,2,94,0,94,0,1,,,,,,,
,,,,,,,,,,,,,,,,,,,,3,2,2021-01-09_16h26.54.746,CL_C2S3,2020.1.3,Win32,60,,,,,u,1,1.0843,2,media/dknb.png,1,"[1,-1,-1]",2,0,Symb,u,RT,0,0,95,2,3,99,99,u,1.0843,1,2,95,0,95,0,1,,,,,,,
,,,,,,,,,,,,,,,,,,,,3,2,2021-01-09_16h26.54.746,CL_C2S3,2020.1.3,Win32,60,,,,,h,1,0.450015,0,media/dcnb.png,1,"[1,-1,-1]",0,0,Symb,h,RT,0,0,96,2,3,99,99,h,0.450015,1,2,96,0,96,0,1,,,,,,,
,,,,,,,,,,,,,,,,,,,,3,2,2021-01-09_16h26.54.746,CL_C2S3,2020.1.3,Win32,60,,,,,h,1,0.368345,0,media/dcnb.png,2,"[-1,1,-1]",3,0,Symb,h,RT,0,0,97,2,3,99,99,h,0.368345,1,2,97,0,97,0,1,,,,,,,
,,,,,,,,,,,,,,,,,,,,3,2,2021-01-09_16h26.54.746,CL_C2S3,2020.1.3,Win32,60,,,,,i,1,0.61827,1,media/dfnb.png,1,"[1,-1,-1]",1,1,Symb,i,RT,0,0,98,2,3,99,99,i,0.61827,1,2,98,0,98,0,1,,,,,,,
,,,,,,,,,,,,,,,,,,,,3,2,2021-01-09_16h26.54.746,CL_C2S3,2020.1.3,Win32,60,,,,,i,1,0.484375,1,media/dfnb.png,1,"[1,-1,-1]",1,1,Symb,i,RT,0,0,99,2,3,99,99,i,0.484375,1,2,99,0,99,0,1,,,,,,,
,,,,,,,,,,,,,,,,,,,,3,2,2021-01-09_16h26.54.746,CL_C2S3,2020.1.3,Win32,60,,,,,u,1,0.80069,2,media/dknb.png,1,"[1,-1,-1]",2,0,Symb,u,RT,0,0,100,2,3,99,99,u,0.80069,1,2,100,0,100,0,1,,,,,,,
,,,,,,,,,,,,,,,,,,,,3,2,2021-01-09_16h26.54.746,CL_C2S3,2020.1.3,Win32,60,,,,,u,1,0.440195,1,media/dfnb.png,2,"[-1,1,-1]",4,1,Symb,u,RT,0,0,101,2,3,99,99,u,0.440195,1,2,101,0,101,0,1,,,,,,,
,,,,,,,,,,,,,,,,,,,,3,2,2021-01-09_16h26.54.746,CL_C2S3,2020.1.3,Win32,60,,,,,i,1,0.60103,2,media/dknb.png,2,"[-1,1,-1]",5,0,Symb,i,RT,0,0,102,2,3,99,99,i,0.60103,1,2,102,0,102,0,1,,,,,,,
,,,,,,,,,,,,,,,,,,,,3,2,2021-01-09_16h26.54.746,CL_C2S3,2020.1.3,Win32,60,,,,,h,1,0.94271,0,media/dcnb.png,1,"[1,-1,-1]",0,0,Symb,h,RT,0,0,103,2,3,99,99,h,0.94271,1,2,103,0,103,0,1,,,,,,,
,,,,,,,,,,,,,,,,,,,,3,2,2021-01-09_16h26.54.746,CL_C2S3,2020.1.3,Win32,60,,,,,u,0,1.20512,1,media/dfnb.png,1,"[1,-1,-1]",1,1,Symb,i,RT,0,0,104,2,3,99,99,u,1.20512,0,2,104,0,104,0,1,,,,,,,
,,,,,,,,,,,,,,,,,,,,3,2,2021-01-09_16h26.54.746,CL_C2S3,2020.1.3,Win32,60,,,,,h,1,0.50102,0,media/dcnb.png,1,"[1,-1,-1]",0,0,Symb,h,RT,0,0,105,2,3,99,99,h,0.50102,1,2,105,0,105,0,1,,,,,,,
,,,,,,,,,,,,,,,,,,,,3,2,2021-01-09_16h26.54.746,CL_C2S3,2020.1.3,Win32,60,,,,,h,1,0.642995,0,media/dcnb.png,2,"[-1,1,-1]",3,0,Symb,h,RT,0,0,106,2,3,99,99,h,0.642995,1,2,106,0,106,0,1,,,,,,,
,,,,,,,,,,,,,,,,,,,,3,2,2021-01-09_16h26.54.746,CL_C2S3,2020.1.3,Win32,60,,,,,i,1,1.418055,2,media/dknb.png,2,"[-1,1,-1]",5,0,Symb,i,RT,0,0,107,2,3,99,99,i,1.418055,1,2,107,0,107,0,1,,,,,,,
,,,,,,,,,,,,,,,,,,,,3,2,2021-01-09_16h26.54.746,CL_C2S3,2020.1.3,Win32,60,,,,,u,1,0.568025,2,media/dknb.png,1,"[1,-1,-1]",2,0,Symb,u,RT,0,0,108,2,3,99,99,u,0.568025,1,2,108,0,108,0,1,,,,,,,
,,,,,,,,,,,,,,,,,,,,3,2,2021-01-09_16h26.54.746,CL_C2S3,2020.1.3,Win32,60,,,,,i,1,0.90291,1,media/dfnb.png,1,"[1,-1,-1]",1,1,Symb,i,RT,0,0,109,2,3,99,99,i,0.90291,1,2,109,0,109,0,1,,,,,,,
,,,,,,,,,,,,,,,,,,,,3,2,2021-01-09_16h26.54.746,CL_C2S3,2020.1.3,Win32,60,,,,,u,1,0.70216,2,media/dknb.png,1,"[1,-1,-1]",2,0,Symb,u,RT,0,0,110,2,3,99,99,u,0.70216,1,2,110,0,110,0,1,,,,,,,
,,,,,,,,,,,,,,,,,,,,3,2,2021-01-09_16h26.54.746,CL_C2S3,2020.1.3,Win32,60,,,,,h,1,0.468,0,media/dcnb.png,2,"[-1,1,-1]",3,0,Symb,h,RT,0,0,111,2,3,99,99,h,0.468,1,2,111,0,111,0,1,,,,,,,
,,,,,,,,,,,,,,,,,,,,3,2,2021-01-09_16h26.54.746,CL_C2S3,2020.1.3,Win32,60,,,,,u,1,0.752215,1,media/dfnb.png,2,"[-1,1,-1]",4,1,Symb,u,RT,0,0,112,2,3,99,99,u,0.752215,1,2,112,0,112,0,1,,,,,,,
,,,,,,,,,,,,,,,,,,,,3,2,2021-01-09_16h26.54.746,CL_C2S3,2020.1.3,Win32,60,,,,,u,1,0.47247,1,media/dfnb.png,2,"[-1,1,-1]",4,1,Symb,u,RT,0,0,113,2,3,99,99,u,0.47247,1,2,113,0,113,0,1,,,,,,,
,,,,,,,,,,,,,,,,,,,,3,2,2021-01-09_16h26.54.746,CL_C2S3,2020.1.3,Win32,60,,,,,h,1,0.51833,0,media/dcnb.png,2,"[-1,1,-1]",3,0,Symb,h,RT,0,0,114,2,3,99,99,h,0.51833,1,2,114,0,114,0,1,,,,,,,
,,,,,,,,,,,,,,,,,,,,3,2,2021-01-09_16h26.54.746,CL_C2S3,2020.1.3,Win32,60,,,,,h,1,0.72698,0,media/dcnb.png,1,"[1,-1,-1]",0,0,Symb,h,RT,0,0,115,2,3,99,99,h,0.72698,1,2,115,0,115,0,1,,,,,,,
,,,,,,,,,,,,,,,,,,,,3,2,2021-01-09_16h26.54.746,CL_C2S3,2020.1.3,Win32,60,,,,,i,1,0.651945,2,media/dknb.png,2,"[-1,1,-1]",5,0,Symb,i,RT,0,0,116,2,3,99,99,i,0.651945,1,2,116,0,116,0,1,,,,,,,
,,,,,,,,,,,,,,,,,,,,3,2,2021-01-09_16h26.54.746,CL_C2S3,2020.1.3,Win32,60,,,,,u,0,0.55098,1,media/dfnb.png,1,"[1,-1,-1]",1,1,Symb,i,RT,0,0,117,2,3,99,99,u,0.55098,0,2,117,0,117,0,1,,,,,,,
,,,,,,,,,,,,,,,,,,,,3,2,2021-01-09_16h26.54.746,CL_C2S3,2020.1.3,Win32,60,,,,,u,1,0.70221,2,media/dknb.png,1,"[1,-1,-1]",2,0,Symb,u,RT,0,0,118,2,3,99,99,u,0.70221,1,2,118,0,118,0,1,,,,,,,
,,,,,,,,,,,,,,,,,,,,3,2,2021-01-09_16h26.54.746,CL_C2S3,2020.1.3,Win32,60,,,,,u,1,0.5546,1,media/dfnb.png,2,"[-1,1,-1]",4,1,Symb,u,RT,0,0,119,2,3,99,99,u,0.5546,1,2,119,0,119,0,1,,,,,,,
,,,,,,,,,,,,,,,,,,,,3,2,2021-01-09_16h26.54.746,CL_C2S3,2020.1.3,Win32,60,,,,,,,,,,,,,,,,,,,,,,,,,,,,,,,,,2,0,2,0,1,,
,,,,,,,,,,,,,,,,,,,,3,2,2021-01-09_16h26.54.746,CL_C2S3,2020.1.3,Win32,60,,,h,3.85102,h,1,0.62207,0,media/dcnb.png,1,"[1,-1,-1]",0,0,Symb,h,RT,0,0,0,2,4,99,99,h,0.62207,1,2,0,0,0,0,1,,,,,,,
,,,,,,,,,,,,,,,,,,,,3,2,2021-01-09_16h26.54.746,CL_C2S3,2020.1.3,Win32,60,,,,,h,1,0.52135,0,media/dcnb.png,2,"[-1,1,-1]",3,0,Symb,h,RT,0,0,1,2,4,99,99,h,0.52135,1,2,1,0,1,0,1,,,,,,,
,,,,,,,,,,,,,,,,,,,,3,2,2021-01-09_16h26.54.746,CL_C2S3,2020.1.3,Win32,60,,,,,i,1,0.888945,1,media/dfnb.png,1,"[1,-1,-1]",1,1,Symb,i,RT,0,0,2,2,4,99,99,i,0.888945,1,2,2,0,2,0,1,,,,,,,
,,,,,,,,,,,,,,,,,,,,3,2,2021-01-09_16h26.54.746,CL_C2S3,2020.1.3,Win32,60,,,,,u,1,0.62052,2,media/dknb.png,1,"[1,-1,-1]",2,0,Symb,u,RT,0,0,3,2,4,99,99,u,0.62052,1,2,3,0,3,0,1,,,,,,,
,,,,,,,,,,,,,,,,,,,,3,2,2021-01-09_16h26.54.746,CL_C2S3,2020.1.3,Win32,60,,,,,u,1,1.06825,1,media/dfnb.png,2,"[-1,1,-1]",4,1,Symb,u,RT,0,0,4,2,4,99,99,u,1.06825,1,2,4,0,4,0,1,,,,,,,
,,,,,,,,,,,,,,,,,,,,3,2,2021-01-09_16h26.54.746,CL_C2S3,2020.1.3,Win32,60,,,,,h,1,0.50171,0,media/dcnb.png,1,"[1,-1,-1]",0,0,Symb,h,RT,0,0,5,2,4,99,99,h,0.50171,1,2,5,0,5,0,1,,,,,,,
,,,,,,,,,,,,,,,,,,,,3,2,2021-01-09_16h26.54.746,CL_C2S3,2020.1.3,Win32,60,,,,,i,1,1.270625,1,media/dfnb.png,1,"[1,-1,-1]",1,1,Symb,i,RT,0,0,6,2,4,99,99,i,1.270625,1,2,6,0,6,0,1,,,,,,,
,,,,,,,,,,,,,,,,,,,,3,2,2021-01-09_16h26.54.746,CL_C2S3,2020.1.3,Win32,60,,,,,u,1,0.720225,2,media/dknb.png,1,"[1,-1,-1]",2,0,Symb,u,RT,0,0,7,2,4,99,99,u,0.720225,1,2,7,0,7,0,1,,,,,,,
,,,,,,,,,,,,,,,,,,,,3,2,2021-01-09_16h26.54.746,CL_C2S3,2020.1.3,Win32,60,,,,,i,1,0.49359,2,media/dknb.png,2,"[-1,1,-1]",5,0,Symb,i,RT,0,0,8,2,4,99,99,i,0.49359,1,2,8,0,8,0,1,,,,,,,
,,,,,,,,,,,,,,,,,,,,3,2,2021-01-09_16h26.54.746,CL_C2S3,2020.1.3,Win32,60,,,,,i,1,0.47128,2,media/dknb.png,2,"[-1,1,-1]",5,0,Symb,i,RT,0,0,9,2,4,99,99,i,0.47128,1,2,9,0,9,0,1,,,,,,,
,,,,,,,,,,,,,,,,,,,,3,2,2021-01-09_16h26.54.746,CL_C2S3,2020.1.3,Win32,60,,,,,h,1,0.7042,0,media/dcnb.png,2,"[-1,1,-1]",3,0,Symb,h,RT,0,0,10,2,4,99,99,h,0.7042,1,2,10,0,10,0,1,,,,,,,
,,,,,,,,,,,,,,,,,,,,3,2,2021-01-09_16h26.54.746,CL_C2S3,2020.1.3,Win32,60,,,,,u,1,0.5506,1,media/dfnb.png,2,"[-1,1,-1]",4,1,Symb,u,RT,0,0,11,2,4,99,99,u,0.5506,1,2,11,0,11,0,1,,,,,,,
,,,,,,,,,,,,,,,,,,,,3,2,2021-01-09_16h26.54.746,CL_C2S3,2020.1.3,Win32,60,,,,,i,1,0.62933,1,media/dfnb.png,1,"[1,-1,-1]",1,1,Symb,i,RT,0,0,12,2,4,99,99,i,0.62933,1,2,12,0,12,0,1,,,,,,,
,,,,,,,,,,,,,,,,,,,,3,2,2021-01-09_16h26.54.746,CL_C2S3,2020.1.3,Win32,60,,,,,u,1,0.51729,1,media/dfnb.png,2,"[-1,1,-1]",4,1,Symb,u,RT,0,0,13,2,4,99,99,u,0.51729,1,2,13,0,13,0,1,,,,,,,
,,,,,,,,,,,,,,,,,,,,3,2,2021-01-09_16h26.54.746,CL_C2S3,2020.1.3,Win32,60,,,,,i,1,1.21763,2,media/dknb.png,2,"[-1,1,-1]",5,0,Symb,i,RT,0,0,14,2,4,99,99,i,1.21763,1,2,14,0,14,0,1,,,,,,,
,,,,,,,,,,,,,,,,,,,,3,2,2021-01-09_16h26.54.746,CL_C2S3,2020.1.3,Win32,60,,,,,i,1,0.417835,2,media/dknb.png,2,"[-1,1,-1]",5,0,Symb,i,RT,0,0,15,2,4,99,99,i,0.417835,1,2,15,0,15,0,1,,,,,,,
,,,,,,,,,,,,,,,,,,,,3,2,2021-01-09_16h26.54.746,CL_C2S3,2020.1.3,Win32,60,,,,,h,1,0.467775,0,media/dcnb.png,2,"[-1,1,-1]",3,0,Symb,h,RT,0,0,16,2,4,99,99,h,0.467775,1,2,16,0,16,0,1,,,,,,,
,,,,,,,,,,,,,,,,,,,,3,2,2021-01-09_16h26.54.746,CL_C2S3,2020.1.3,Win32,60,,,,,h,1,0.41769,0,media/dcnb.png,1,"[1,-1,-1]",0,0,Symb,h,RT,0,0,17,2,4,99,99,h,0.41769,1,2,17,0,17,0,1,,,,,,,
,,,,,,,,,,,,,,,,,,,,3,2,2021-01-09_16h26.54.746,CL_C2S3,2020.1.3,Win32,60,,,,,h,1,0.401045,0,media/dcnb.png,2,"[-1,1,-1]",3,0,Symb,h,RT,0,0,18,2,4,99,99,h,0.401045,1,2,18,0,18,0,1,,,,,,,
,,,,,,,,,,,,,,,,,,,,3,2,2021-01-09_16h26.54.746,CL_C2S3,2020.1.3,Win32,60,,,,,i,1,0.667605,1,media/dfnb.png,1,"[1,-1,-1]",1,1,Symb,i,RT,0,0,19,2,4,99,99,i,0.667605,1,2,19,0,19,0,1,,,,,,,
,,,,,,,,,,,,,,,,,,,,3,2,2021-01-09_16h26.54.746,CL_C2S3,2020.1.3,Win32,60,,,,,h,1,0.55067,0,media/dcnb.png,1,"[1,-1,-1]",0,0,Symb,h,RT,0,0,20,2,4,99,99,h,0.55067,1,2,20,0,20,0,1,,,,,,,
,,,,,,,,,,,,,,,,,,,,3,2,2021-01-09_16h26.54.746,CL_C2S3,2020.1.3,Win32,60,,,,,i,0,0.83429,2,media/dknb.png,1,"[1,-1,-1]",2,0,Symb,u,RT,0,0,21,2,4,99,99,i,0.83429,0,2,21,0,21,0,1,,,,,,,
,,,,,,,,,,,,,,,,,,,,3,2,2021-01-09_16h26.54.746,CL_C2S3,2020.1.3,Win32,60,,,,,u,1,0.56777,2,media/dknb.png,1,"[1,-1,-1]",2,0,Symb,u,RT,0,0,22,2,4,99,99,u,0.56777,1,2,22,0,22,0,1,,,,,,,
,,,,,,,,,,,,,,,,,,,,3,2,2021-01-09_16h26.54.746,CL_C2S3,2020.1.3,Win32,60,,,,,u,1,0.48576,1,media/dfnb.png,2,"[-1,1,-1]",4,1,Symb,u,RT,0,0,23,2,4,99,99,u,0.48576,1,2,23,0,23,0,1,,,,,,,
,,,,,,,,,,,,,,,,,,,,3,2,2021-01-09_16h26.54.746,CL_C2S3,2020.1.3,Win32,60,,,,,u,1,0.65107,2,media/dknb.png,1,"[1,-1,-1]",2,0,Symb,u,RT,0,0,24,2,4,99,99,u,0.65107,1,2,24,0,24,0,1,,,,,,,
,,,,,,,,,,,,,,,,,,,,3,2,2021-01-09_16h26.54.746,CL_C2S3,2020.1.3,Win32,60,,,,,i,1,0.66903,2,media/dknb.png,2,"[-1,1,-1]",5,0,Symb,i,RT,0,0,25,2,4,99,99,i,0.66903,1,2,25,0,25,0,1,,,,,,,
,,,,,,,,,,,,,,,,,,,,3,2,2021-01-09_16h26.54.746,CL_C2S3,2020.1.3,Win32,60,,,,,h,1,0.501195,0,media/dcnb.png,1,"[1,-1,-1]",0,0,Symb,h,RT,0,0,26,2,4,99,99,h,0.501195,1,2,26,0,26,0,1,,,,,,,
,,,,,,,,,,,,,,,,,,,,3,2,2021-01-09_16h26.54.746,CL_C2S3,2020.1.3,Win32,60,,,,,h,1,0.38448,0,media/dcnb.png,2,"[-1,1,-1]",3,0,Symb,h,RT,0,0,27,2,4,99,99,h,0.38448,1,2,27,0,27,0,1,,,,,,,
,,,,,,,,,,,,,,,,,,,,3,2,2021-01-09_16h26.54.746,CL_C2S3,2020.1.3,Win32,60,,,,,u,1,0.758845,1,media/dfnb.png,2,"[-1,1,-1]",4,1,Symb,u,RT,0,0,28,2,4,99,99,u,0.758845,1,2,28,0,28,0,1,,,,,,,
,,,,,,,,,,,,,,,,,,,,3,2,2021-01-09_16h26.54.746,CL_C2S3,2020.1.3,Win32,60,,,,,i,1,1.61863,1,media/dfnb.png,1,"[1,-1,-1]",1,1,Symb,i,RT,0,0,29,2,4,99,99,i,1.61863,1,2,29,0,29,0,1,,,,,,,
,,,,,,,,,,,,,,,,,,,,3,2,2021-01-09_16h26.54.746,CL_C2S3,2020.1.3,Win32,60,,,,,i,1,0.46755,1,media/dfnb.png,1,"[1,-1,-1]",1,1,Symb,i,RT,0,0,30,2,4,99,99,i,0.46755,1,2,30,0,30,0,1,,,,,,,
,,,,,,,,,,,,,,,,,,,,3,2,2021-01-09_16h26.54.746,CL_C2S3,2020.1.3,Win32,60,,,,,i,1,1.02549,2,media/dknb.png,2,"[-1,1,-1]",5,0,Symb,i,RT,0,0,31,2,4,99,99,i,1.02549,1,2,31,0,31,0,1,,,,,,,
,,,,,,,,,,,,,,,,,,,,3,2,2021-01-09_16h26.54.746,CL_C2S3,2020.1.3,Win32,60,,,,,h,1,0.53512,0,media/dcnb.png,1,"[1,-1,-1]",0,0,Symb,h,RT,0,0,32,2,4,99,99,h,0.53512,1,2,32,0,32,0,1,,,,,,,
,,,,,,,,,,,,,,,,,,,,3,2,2021-01-09_16h26.54.746,CL_C2S3,2020.1.3,Win32,60,,,,,i,1,0.96848,1,media/dfnb.png,1,"[1,-1,-1]",1,1,Symb,i,RT,0,0,33,2,4,99,99,i,0.96848,1,2,33,0,33,0,1,,,,,,,
,,,,,,,,,,,,,,,,,,,,3,2,2021-01-09_16h26.54.746,CL_C2S3,2020.1.3,Win32,60,,,,,u,1,0.568545,1,media/dfnb.png,2,"[-1,1,-1]",4,1,Symb,u,RT,0,0,34,2,4,99,99,u,0.568545,1,2,34,0,34,0,1,,,,,,,
,,,,,,,,,,,,,,,,,,,,3,2,2021-01-09_16h26.54.746,CL_C2S3,2020.1.3,Win32,60,,,,,h,1,0.58725,0,media/dcnb.png,2,"[-1,1,-1]",3,0,Symb,h,RT,0,0,35,2,4,99,99,h,0.58725,1,2,35,0,35,0,1,,,,,,,
,,,,,,,,,,,,,,,,,,,,3,2,2021-01-09_16h26.54.746,CL_C2S3,2020.1.3,Win32,60,,,,,u,1,0.719445,1,media/dfnb.png,2,"[-1,1,-1]",4,1,Symb,u,RT,0,0,36,2,4,99,99,u,0.719445,1,2,36,0,36,0,1,,,,,,,
,,,,,,,,,,,,,,,,,,,,3,2,2021-01-09_16h26.54.746,CL_C2S3,2020.1.3,Win32,60,,,,,h,1,0.588435,0,media/dcnb.png,1,"[1,-1,-1]",0,0,Symb,h,RT,0,0,37,2,4,99,99,h,0.588435,1,2,37,0,37,0,1,,,,,,,
,,,,,,,,,,,,,,,,,,,,3,2,2021-01-09_16h26.54.746,CL_C2S3,2020.1.3,Win32,60,,,,,i,1,0.835085,2,media/dknb.png,2,"[-1,1,-1]",5,0,Symb,i,RT,0,0,38,2,4,99,99,i,0.835085,1,2,38,0,38,0,1,,,,,,,
,,,,,,,,,,,,,,,,,,,,3,2,2021-01-09_16h26.54.746,CL_C2S3,2020.1.3,Win32,60,,,,,h,1,0.570795,0,media/dcnb.png,2,"[-1,1,-1]",3,0,Symb,h,RT,0,0,39,2,4,99,99,h,0.570795,1,2,39,0,39,0,1,,,,,,,
,,,,,,,,,,,,,,,,,,,,3,2,2021-01-09_16h26.54.746,CL_C2S3,2020.1.3,Win32,60,,,,,u,1,0.56813,2,media/dknb.png,1,"[1,-1,-1]",2,0,Symb,u,RT,0,0,40,2,4,99,99,u,0.56813,1,2,40,0,40,0,1,,,,,,,
,,,,,,,,,,,,,,,,,,,,3,2,2021-01-09_16h26.54.746,CL_C2S3,2020.1.3,Win32,60,,,,,u,1,0.452425,2,media/dknb.png,1,"[1,-1,-1]",2,0,Symb,u,RT,0,0,41,2,4,99,99,u,0.452425,1,2,41,0,41,0,1,,,,,,,
,,,,,,,,,,,,,,,,,,,,3,2,2021-01-09_16h26.54.746,CL_C2S3,2020.1.3,Win32,60,,,,,u,1,0.519115,2,media/dknb.png,1,"[1,-1,-1]",2,0,Symb,u,RT,0,0,42,2,4,99,99,u,0.519115,1,2,42,0,42,0,1,,,,,,,
,,,,,,,,,,,,,,,,,,,,3,2,2021-01-09_16h26.54.746,CL_C2S3,2020.1.3,Win32,60,,,,,h,1,0.622475,0,media/dcnb.png,1,"[1,-1,-1]",0,0,Symb,h,RT,0,0,43,2,4,99,99,h,0.622475,1,2,43,0,43,0,1,,,,,,,
,,,,,,,,,,,,,,,,,,,,3,2,2021-01-09_16h26.54.746,CL_C2S3,2020.1.3,Win32,60,,,,,i,1,0.55394,2,media/dknb.png,2,"[-1,1,-1]",5,0,Symb,i,RT,0,0,44,2,4,99,99,i,0.55394,1,2,44,0,44,0,1,,,,,,,
,,,,,,,,,,,,,,,,,,,,3,2,2021-01-09_16h26.54.746,CL_C2S3,2020.1.3,Win32,60,,,,,i,1,0.670465,2,media/dknb.png,2,"[-1,1,-1]",5,0,Symb,i,RT,0,0,45,2,4,99,99,i,0.670465,1,2,45,0,45,0,1,,,,,,,
,,,,,,,,,,,,,,,,,,,,3,2,2021-01-09_16h26.54.746,CL_C2S3,2020.1.3,Win32,60,,,,,u,1,0.80478,1,media/dfnb.png,2,"[-1,1,-1]",4,1,Symb,u,RT,0,0,46,2,4,99,99,u,0.80478,1,2,46,0,46,0,1,,,,,,,
,,,,,,,,,,,,,,,,,,,,3,2,2021-01-09_16h26.54.746,CL_C2S3,2020.1.3,Win32,60,,,,,h,1,0.486895,0,media/dcnb.png,1,"[1,-1,-1]",0,0,Symb,h,RT,0,0,47,2,4,99,99,h,0.486895,1,2,47,0,47,0,1,,,,,,,
,,,,,,,,,,,,,,,,,,,,3,2,2021-01-09_16h26.54.746,CL_C2S3,2020.1.3,Win32,60,,,,,i,1,0.85156,1,media/dfnb.png,1,"[1,-1,-1]",1,1,Symb,i,RT,0,0,48,2,4,99,99,i,0.85156,1,2,48,0,48,0,1,,,,,,,
,,,,,,,,,,,,,,,,,,,,3,2,2021-01-09_16h26.54.746,CL_C2S3,2020.1.3,Win32,60,,,,,h,1,0.6674,0,media/dcnb.png,2,"[-1,1,-1]",3,0,Symb,h,RT,0,0,49,2,4,99,99,h,0.6674,1,2,49,0,49,0,1,,,,,,,
,,,,,,,,,,,,,,,,,,,,3,2,2021-01-09_16h26.54.746,CL_C2S3,2020.1.3,Win32,60,,,,,h,1,0.384915,0,media/dcnb.png,2,"[-1,1,-1]",3,0,Symb,h,RT,0,0,50,2,4,99,99,h,0.384915,1,2,50,0,50,0,1,,,,,,,
,,,,,,,,,,,,,,,,,,,,3,2,2021-01-09_16h26.54.746,CL_C2S3,2020.1.3,Win32,60,,,,,u,1,0.787535,1,media/dfnb.png,2,"[-1,1,-1]",4,1,Symb,u,RT,0,0,51,2,4,99,99,u,0.787535,1,2,51,0,51,0,1,,,,,,,
,,,,,,,,,,,,,,,,,,,,3,2,2021-01-09_16h26.54.746,CL_C2S3,2020.1.3,Win32,60,,,,,i,1,0.555075,1,media/dfnb.png,1,"[1,-1,-1]",1,1,Symb,i,RT,0,0,52,2,4,99,99,i,0.555075,1,2,52,0,52,0,1,,,,,,,
,,,,,,,,,,,,,,,,,,,,3,2,2021-01-09_16h26.54.746,CL_C2S3,2020.1.3,Win32,60,,,,,u,1,0.53662,2,media/dknb.png,1,"[1,-1,-1]",2,0,Symb,u,RT,0,0,53,2,4,99,99,u,0.53662,1,2,53,0,53,0,1,,,,,,,
,,,,,,,,,,,,,,,,,,,,3,2,2021-01-09_16h26.54.746,CL_C2S3,2020.1.3,Win32,60,,,,,i,1,0.51999,2,media/dknb.png,2,"[-1,1,-1]",5,0,Symb,i,RT,0,0,54,2,4,99,99,i,0.51999,1,2,54,0,54,0,1,,,,,,,
,,,,,,,,,,,,,,,,,,,,3,2,2021-01-09_16h26.54.746,CL_C2S3,2020.1.3,Win32,60,,,,,u,1,0.655255,1,media/dfnb.png,2,"[-1,1,-1]",4,1,Symb,u,RT,0,0,55,2,4,99,99,u,0.655255,1,2,55,0,55,0,1,,,,,,,
,,,,,,,,,,,,,,,,,,,,3,2,2021-01-09_16h26.54.746,CL_C2S3,2020.1.3,Win32,60,,,,,h,1,0.5218,0,media/dcnb.png,2,"[-1,1,-1]",3,0,Symb,h,RT,0,0,56,2,4,99,99,h,0.5218,1,2,56,0,56,0,1,,,,,,,
,,,,,,,,,,,,,,,,,,,,3,2,2021-01-09_16h26.54.746,CL_C2S3,2020.1.3,Win32,60,,,,,i,1,0.920395,1,media/dfnb.png,1,"[1,-1,-1]",1,1,Symb,i,RT,0,0,57,2,4,99,99,i,0.920395,1,2,57,0,57,0,1,,,,,,,
,,,,,,,,,,,,,,,,,,,,3,2,2021-01-09_16h26.54.746,CL_C2S3,2020.1.3,Win32,60,,,,,h,1,0.533845,0,media/dcnb.png,1,"[1,-1,-1]",0,0,Symb,h,RT,0,0,58,2,4,99,99,h,0.533845,1,2,58,0,58,0,1,,,,,,,
,,,,,,,,,,,,,,,,,,,,3,2,2021-01-09_16h26.54.746,CL_C2S3,2020.1.3,Win32,60,,,,,i,0,0.77665,2,media/dknb.png,1,"[1,-1,-1]",2,0,Symb,u,RT,0,0,59,2,4,99,99,i,0.77665,0,2,59,0,59,0,1,,,,,,,
,,,,,,,,,,,,,,,,,,,,3,2,2021-01-09_16h26.54.746,CL_C2S3,2020.1.3,Win32,60,,,,,u,1,2.470075,2,media/dknb.png,1,"[1,-1,-1]",2,0,Symb,u,RT,0,0,60,2,4,99,99,u,2.470075,1,2,60,0,60,0,1,,,,,,,
,,,,,,,,,,,,,,,,,,,,3,2,2021-01-09_16h26.54.746,CL_C2S3,2020.1.3,Win32,60,,,,,i,1,0.853515,1,media/dfnb.png,1,"[1,-1,-1]",1,1,Symb,i,RT,0,0,61,2,4,99,99,i,0.853515,1,2,61,0,61,0,1,,,,,,,
,,,,,,,,,,,,,,,,,,,,3,2,2021-01-09_16h26.54.746,CL_C2S3,2020.1.3,Win32,60,,,,,u,1,1.035095,1,media/dfnb.png,2,"[-1,1,-1]",4,1,Symb,u,RT,0,0,62,2,4,99,99,u,1.035095,1,2,62,0,62,0,1,,,,,,,
,,,,,,,,,,,,,,,,,,,,3,2,2021-01-09_16h26.54.746,CL_C2S3,2020.1.3,Win32,60,,,,,h,1,0.885035,0,media/dcnb.png,2,"[-1,1,-1]",3,0,Symb,h,RT,0,0,63,2,4,99,99,h,0.885035,1,2,63,0,63,0,1,,,,,,,
,,,,,,,,,,,,,,,,,,,,3,2,2021-01-09_16h26.54.746,CL_C2S3,2020.1.3,Win32,60,,,,,i,1,0.78699,2,media/dknb.png,2,"[-1,1,-1]",5,0,Symb,i,RT,0,0,64,2,4,99,99,i,0.78699,1,2,64,0,64,0,1,,,,,,,
,,,,,,,,,,,,,,,,,,,,3,2,2021-01-09_16h26.54.746,CL_C2S3,2020.1.3,Win32,60,,,,,h,1,0.66966,0,media/dcnb.png,2,"[-1,1,-1]",3,0,Symb,h,RT,0,0,65,2,4,99,99,h,0.66966,1,2,65,0,65,0,1,,,,,,,
,,,,,,,,,,,,,,,,,,,,3,2,2021-01-09_16h26.54.746,CL_C2S3,2020.1.3,Win32,60,,,,,i,1,0.653125,2,media/dknb.png,2,"[-1,1,-1]",5,0,Symb,i,RT,0,0,66,2,4,99,99,i,0.653125,1,2,66,0,66,0,1,,,,,,,
,,,,,,,,,,,,,,,,,,,,3,2,2021-01-09_16h26.54.746,CL_C2S3,2020.1.3,Win32,60,,,,,i,1,0.787075,1,media/dfnb.png,1,"[1,-1,-1]",1,1,Symb,i,RT,0,0,67,2,4,99,99,i,0.787075,1,2,67,0,67,0,1,,,,,,,
,,,,,,,,,,,,,,,,,,,,3,2,2021-01-09_16h26.54.746,CL_C2S3,2020.1.3,Win32,60,,,,,u,1,0.754925,2,media/dknb.png,1,"[1,-1,-1]",2,0,Symb,u,RT,0,0,68,2,4,99,99,u,0.754925,1,2,68,0,68,0,1,,,,,,,
,,,,,,,,,,,,,,,,,,,,3,2,2021-01-09_16h26.54.746,CL_C2S3,2020.1.3,Win32,60,,,,,h,1,0.568225,0,media/dcnb.png,1,"[1,-1,-1]",0,0,Symb,h,RT,0,0,69,2,4,99,99,h,0.568225,1,2,69,0,69,0,1,,,,,,,
,,,,,,,,,,,,,,,,,,,,3,2,2021-01-09_16h26.54.746,CL_C2S3,2020.1.3,Win32,60,,,,,u,1,2.971005,1,media/dfnb.png,2,"[-1,1,-1]",4,1,Symb,u,RT,0,0,70,2,4,99,99,u,2.971005,1,2,70,0,70,0,1,,,,,,,
,,,,,,,,,,,,,,,,,,,,3,2,2021-01-09_16h26.54.746,CL_C2S3,2020.1.3,Win32,60,,,,,h,1,0.618285,0,media/dcnb.png,1,"[1,-1,-1]",0,0,Symb,h,RT,0,0,71,2,4,99,99,h,0.618285,1,2,71,0,71,0,1,,,,,,,
,,,,,,,,,,,,,,,,,,,,3,2,2021-01-09_16h26.54.746,CL_C2S3,2020.1.3,Win32,60,,,,,u,1,1.73624,2,media/dknb.png,1,"[1,-1,-1]",2,0,Symb,u,RT,0,0,72,2,4,99,99,u,1.73624,1,2,72,0,72,0,1,,,,,,,
,,,,,,,,,,,,,,,,,,,,3,2,2021-01-09_16h26.54.746,CL_C2S3,2020.1.3,Win32,60,,,,,i,1,0.743495,2,media/dknb.png,2,"[-1,1,-1]",5,0,Symb,i,RT,0,0,73,2,4,99,99,i,0.743495,1,2,73,0,73,0,1,,,,,,,
,,,,,,,,,,,,,,,,,,,,3,2,2021-01-09_16h26.54.746,CL_C2S3,2020.1.3,Win32,60,,,,,h,1,0.63792,0,media/dcnb.png,2,"[-1,1,-1]",3,0,Symb,h,RT,0,0,74,2,4,99,99,h,0.63792,1,2,74,0,74,0,1,,,,,,,
,,,,,,,,,,,,,,,,,,,,3,2,2021-01-09_16h26.54.746,CL_C2S3,2020.1.3,Win32,60,,,,,h,1,0.485445,0,media/dcnb.png,2,"[-1,1,-1]",3,0,Symb,h,RT,0,0,75,2,4,99,99,h,0.485445,1,2,75,0,75,0,1,,,,,,,
,,,,,,,,,,,,,,,,,,,,3,2,2021-01-09_16h26.54.746,CL_C2S3,2020.1.3,Win32,60,,,,,i,1,0.752235,2,media/dknb.png,2,"[-1,1,-1]",5,0,Symb,i,RT,0,0,76,2,4,99,99,i,0.752235,1,2,76,0,76,0,1,,,,,,,
,,,,,,,,,,,,,,,,,,,,3,2,2021-01-09_16h26.54.746,CL_C2S3,2020.1.3,Win32,60,,,,,i,1,2.170245,1,media/dfnb.png,1,"[1,-1,-1]",1,1,Symb,i,RT,0,0,77,2,4,99,99,i,2.170245,1,2,77,0,77,0,1,,,,,,,
,,,,,,,,,,,,,,,,,,,,3,2,2021-01-09_16h26.54.746,CL_C2S3,2020.1.3,Win32,60,,,,,h,1,2.534875,0,media/dcnb.png,1,"[1,-1,-1]",0,0,Symb,h,RT,0,0,78,2,4,99,99,h,2.534875,1,2,78,0,78,0,1,,,,,,,
,,,,,,,,,,,,,,,,,,,,3,2,2021-01-09_16h26.54.746,CL_C2S3,2020.1.3,Win32,60,,,,,u,1,3.374235,1,media/dfnb.png,2,"[-1,1,-1]",4,1,Symb,u,RT,0,0,79,2,4,99,99,u,3.374235,1,2,79,0,79,0,1,,,,,,,
,,,,,,,,,,,,,,,,,,,,3,2,2021-01-09_16h26.54.746,CL_C2S3,2020.1.3,Win32,60,,,,,h,1,0.65363,0,media/dcnb.png,1,"[1,-1,-1]",0,0,Symb,h,RT,0,0,80,2,4,99,99,h,0.65363,1,2,80,0,80,0,1,,,,,,,
,,,,,,,,,,,,,,,,,,,,3,2,2021-01-09_16h26.54.746,CL_C2S3,2020.1.3,Win32,60,,,,,u,1,0.650995,1,media/dfnb.png,2,"[-1,1,-1]",4,1,Symb,u,RT,0,0,81,2,4,99,99,u,0.650995,1,2,81,0,81,0,1,,,,,,,
,,,,,,,,,,,,,,,,,,,,3,2,2021-01-09_16h26.54.746,CL_C2S3,2020.1.3,Win32,60,,,,,u,1,0.851045,2,media/dknb.png,1,"[1,-1,-1]",2,0,Symb,u,RT,0,0,82,2,4,99,99,u,0.851045,1,2,82,0,82,0,1,,,,,,,
,,,,,,,,,,,,,,,,,,,,3,2,2021-01-09_16h26.54.746,CL_C2S3,2020.1.3,Win32,60,,,,,i,1,0.724485,1,media/dfnb.png,1,"[1,-1,-1]",1,1,Symb,i,RT,0,0,83,2,4,99,99,i,0.724485,1,2,83,0,83,0,1,,,,,,,
,,,,,,,,,,,,,,,,,,,,3,2,2021-01-09_16h26.54.746,CL_C2S3,2020.1.3,Win32,60,,,,,u,1,0.488665,1,media/dfnb.png,2,"[-1,1,-1]",4,1,Symb,u,RT,0,0,84,2,4,99,99,u,0.488665,1,2,84,0,84,0,1,,,,,,,
,,,,,,,,,,,,,,,,,,,,3,2,2021-01-09_16h26.54.746,CL_C2S3,2020.1.3,Win32,60,,,,,u,1,0.62108,2,media/dknb.png,1,"[1,-1,-1]",2,0,Symb,u,RT,0,0,85,2,4,99,99,u,0.62108,1,2,85,0,85,0,1,,,,,,,
,,,,,,,,,,,,,,,,,,,,3,2,2021-01-09_16h26.54.746,CL_C2S3,2020.1.3,Win32,60,,,,,i,1,0.571645,2,media/dknb.png,2,"[-1,1,-1]",5,0,Symb,i,RT,0,0,86,2,4,99,99,i,0.571645,1,2,86,0,86,0,1,,,,,,,
,,,,,,,,,,,,,,,,,,,,3,2,2021-01-09_16h26.54.746,CL_C2S3,2020.1.3,Win32,60,,,,,h,1,0.98427,0,media/dcnb.png,1,"[1,-1,-1]",0,0,Symb,h,RT,0,0,87,2,4,99,99,h,0.98427,1,2,87,0,87,0,1,,,,,,,
,,,,,,,,,,,,,,,,,,,,3,2,2021-01-09_16h26.54.746,CL_C2S3,2020.1.3,Win32,60,,,,,h,1,0.439045,0,media/dcnb.png,2,"[-1,1,-1]",3,0,Symb,h,RT,0,0,88,2,4,99,99,h,0.439045,1,2,88,0,88,0,1,,,,,,,
,,,,,,,,,,,,,,,,,,,,3,2,2021-01-09_16h26.54.746,CL_C2S3,2020.1.3,Win32,60,,,,,i,1,1.00166,1,media/dfnb.png,1,"[1,-1,-1]",1,1,Symb,i,RT,0,0,89,2,4,99,99,i,1.00166,1,2,89,0,89,0,1,,,,,,,
,,,,,,,,,,,,,,,,,,,,3,2,2021-01-09_16h26.54.746,CL_C2S3,2020.1.3,Win32,60,,,,,h,1,0.66696,0,media/dcnb.png,1,"[1,-1,-1]",0,0,Symb,h,RT,0,0,90,2,4,99,99,h,0.66696,1,2,90,0,90,0,1,,,,,,,
,,,,,,,,,,,,,,,,,,,,3,2,2021-01-09_16h26.54.746,CL_C2S3,2020.1.3,Win32,60,,,,,u,1,0.719585,1,media/dfnb.png,2,"[-1,1,-1]",4,1,Symb,u,RT,0,0,91,2,4,99,99,u,0.719585,1,2,91,0,91,0,1,,,,,,,
,,,,,,,,,,,,,,,,,,,,3,2,2021-01-09_16h26.54.746,CL_C2S3,2020.1.3,Win32,60,,,,,i,1,1.955745,2,media/dknb.png,2,"[-1,1,-1]",5,0,Symb,i,RT,0,0,92,2,4,99,99,i,1.955745,1,2,92,0,92,0,1,,,,,,,
,,,,,,,,,,,,,,,,,,,,3,2,2021-01-09_16h26.54.746,CL_C2S3,2020.1.3,Win32,60,,,,,i,1,0.763735,1,media/dfnb.png,1,"[1,-1,-1]",1,1,Symb,i,RT,0,0,93,2,4,99,99,i,0.763735,1,2,93,0,93,0,1,,,,,,,
,,,,,,,,,,,,,,,,,,,,3,2,2021-01-09_16h26.54.746,CL_C2S3,2020.1.3,Win32,60,,,,,u,1,0.57542,2,media/dknb.png,1,"[1,-1,-1]",2,0,Symb,u,RT,0,0,94,2,4,99,99,u,0.57542,1,2,94,0,94,0,1,,,,,,,
,,,,,,,,,,,,,,,,,,,,3,2,2021-01-09_16h26.54.746,CL_C2S3,2020.1.3,Win32,60,,,,,h,1,0.52199,0,media/dcnb.png,1,"[1,-1,-1]",0,0,Symb,h,RT,0,0,95,2,4,99,99,h,0.52199,1,2,95,0,95,0,1,,,,,,,
,,,,,,,,,,,,,,,,,,,,3,2,2021-01-09_16h26.54.746,CL_C2S3,2020.1.3,Win32,60,,,,,i,1,1.05332,1,media/dfnb.png,1,"[1,-1,-1]",1,1,Symb,i,RT,0,0,96,2,4,99,99,i,1.05332,1,2,96,0,96,0,1,,,,,,,
,,,,,,,,,,,,,,,,,,,,3,2,2021-01-09_16h26.54.746,CL_C2S3,2020.1.3,Win32,60,,,,,u,1,0.61881,2,media/dknb.png,1,"[1,-1,-1]",2,0,Symb,u,RT,0,0,97,2,4,99,99,u,0.61881,1,2,97,0,97,0,1,,,,,,,
,,,,,,,,,,,,,,,,,,,,3,2,2021-01-09_16h26.54.746,CL_C2S3,2020.1.3,Win32,60,,,,,u,1,0.66783,1,media/dfnb.png,2,"[-1,1,-1]",4,1,Symb,u,RT,0,0,98,2,4,99,99,u,0.66783,1,2,98,0,98,0,1,,,,,,,
,,,,,,,,,,,,,,,,,,,,3,2,2021-01-09_16h26.54.746,CL_C2S3,2020.1.3,Win32,60,,,,,h,1,0.408585,0,media/dcnb.png,2,"[-1,1,-1]",3,0,Symb,h,RT,0,0,99,2,4,99,99,h,0.408585,1,2,99,0,99,0,1,,,,,,,
,,,,,,,,,,,,,,,,,,,,3,2,2021-01-09_16h26.54.746,CL_C2S3,2020.1.3,Win32,60,,,,,h,1,0.451025,0,media/dcnb.png,2,"[-1,1,-1]",3,0,Symb,h,RT,0,0,100,2,4,99,99,h,0.451025,1,2,100,0,100,0,1,,,,,,,
,,,,,,,,,,,,,,,,,,,,3,2,2021-01-09_16h26.54.746,CL_C2S3,2020.1.3,Win32,60,,,,,i,1,0.62187,2,media/dknb.png,2,"[-1,1,-1]",5,0,Symb,i,RT,0,0,101,2,4,99,99,i,0.62187,1,2,101,0,101,0,1,,,,,,,
,,,,,,,,,,,,,,,,,,,,3,2,2021-01-09_16h26.54.746,CL_C2S3,2020.1.3,Win32,60,,,,,u,1,0.6215,2,media/dknb.png,1,"[1,-1,-1]",2,0,Symb,u,RT,0,0,102,2,4,99,99,u,0.6215,1,2,102,0,102,0,1,,,,,,,
,,,,,,,,,,,,,,,,,,,,3,2,2021-01-09_16h26.54.746,CL_C2S3,2020.1.3,Win32,60,,,,,i,1,0.82243,1,media/dfnb.png,1,"[1,-1,-1]",1,1,Symb,i,RT,0,0,103,2,4,99,99,i,0.82243,1,2,103,0,103,0,1,,,,,,,
,,,,,,,,,,,,,,,,,,,,3,2,2021-01-09_16h26.54.746,CL_C2S3,2020.1.3,Win32,60,,,,,i,1,0.5695,1,media/dfnb.png,1,"[1,-1,-1]",1,1,Symb,i,RT,0,0,104,2,4,99,99,i,0.5695,1,2,104,0,104,0,1,,,,,,,
,,,,,,,,,,,,,,,,,,,,3,2,2021-01-09_16h26.54.746,CL_C2S3,2020.1.3,Win32,60,,,,,u,1,0.60458,1,media/dfnb.png,2,"[-1,1,-1]",4,1,Symb,u,RT,0,0,105,2,4,99,99,u,0.60458,1,2,105,0,105,0,1,,,,,,,
,,,,,,,,,,,,,,,,,,,,3,2,2021-01-09_16h26.54.746,CL_C2S3,2020.1.3,Win32,60,,,,,h,1,0.467105,0,media/dcnb.png,1,"[1,-1,-1]",0,0,Symb,h,RT,0,0,106,2,4,99,99,h,0.467105,1,2,106,0,106,0,1,,,,,,,
,,,,,,,,,,,,,,,,,,,,3,2,2021-01-09_16h26.54.746,CL_C2S3,2020.1.3,Win32,60,,,,,h,1,0.38857,0,media/dcnb.png,1,"[1,-1,-1]",0,0,Symb,h,RT,0,0,107,2,4,99,99,h,0.38857,1,2,107,0,107,0,1,,,,,,,
,,,,,,,,,,,,,,,,,,,,3,2,2021-01-09_16h26.54.746,CL_C2S3,2020.1.3,Win32,60,,,,,i,1,0.713005,2,media/dknb.png,2,"[-1,1,-1]",5,0,Symb,i,RT,0,0,108,2,4,99,99,i,0.713005,1,2,108,0,108,0,1,,,,,,,
,,,,,,,,,,,,,,,,,,,,3,2,2021-01-09_16h26.54.746,CL_C2S3,2020.1.3,Win32,60,,,,,h,1,0.534895,0,media/dcnb.png,2,"[-1,1,-1]",3,0,Symb,h,RT,0,0,109,2,4,99,99,h,0.534895,1,2,109,0,109,0,1,,,,,,,
,,,,,,,,,,,,,,,,,,,,3,2,2021-01-09_16h26.54.746,CL_C2S3,2020.1.3,Win32,60,,,,,u,1,0.834875,2,media/dknb.png,1,"[1,-1,-1]",2,0,Symb,u,RT,0,0,110,2,4,99,99,u,0.834875,1,2,110,0,110,0,1,,,,,,,
,,,,,,,,,,,,,,,,,,,,3,2,2021-01-09_16h26.54.746,CL_C2S3,2020.1.3,Win32,60,,,,,i,1,0.57029,2,media/dknb.png,2,"[-1,1,-1]",5,0,Symb,i,RT,0,0,111,2,4,99,99,i,0.57029,1,2,111,0,111,0,1,,,,,,,
,,,,,,,,,,,,,,,,,,,,3,2,2021-01-09_16h26.54.746,CL_C2S3,2020.1.3,Win32,60,,,,,h,1,0.50341,0,media/dcnb.png,2,"[-1,1,-1]",3,0,Symb,h,RT,0,0,112,2,4,99,99,h,0.50341,1,2,112,0,112,0,1,,,,,,,
,,,,,,,,,,,,,,,,,,,,3,2,2021-01-09_16h26.54.746,CL_C2S3,2020.1.3,Win32,60,,,,,u,1,0.53572,1,media/dfnb.png,2,"[-1,1,-1]",4,1,Symb,u,RT,0,0,113,2,4,99,99,u,0.53572,1,2,113,0,113,0,1,,,,,,,
,,,,,,,,,,,,,,,,,,,,3,2,2021-01-09_16h26.54.746,CL_C2S3,2020.1.3,Win32,60,,,,,u,1,0.66708,1,media/dfnb.png,2,"[-1,1,-1]",4,1,Symb,u,RT,0,0,114,2,4,99,99,u,0.66708,1,2,114,0,114,0,1,,,,,,,
,,,,,,,,,,,,,,,,,,,,3,2,2021-01-09_16h26.54.746,CL_C2S3,2020.1.3,Win32,60,,,,,h,1,0.617725,0,media/dcnb.png,1,"[1,-1,-1]",0,0,Symb,h,RT,0,0,115,2,4,99,99,h,0.617725,1,2,115,0,115,0,1,,,,,,,
,,,,,,,,,,,,,,,,,,,,3,2,2021-01-09_16h26.54.746,CL_C2S3,2020.1.3,Win32,60,,,,,u,1,0.71943,2,media/dknb.png,1,"[1,-1,-1]",2,0,Symb,u,RT,0,0,116,2,4,99,99,u,0.71943,1,2,116,0,116,0,1,,,,,,,
,,,,,,,,,,,,,,,,,,,,3,2,2021-01-09_16h26.54.746,CL_C2S3,2020.1.3,Win32,60,,,,,i,1,0.53719,2,media/dknb.png,2,"[-1,1,-1]",5,0,Symb,i,RT,0,0,117,2,4,99,99,i,0.53719,1,2,117,0,117,0,1,,,,,,,
,,,,,,,,,,,,,,,,,,,,3,2,2021-01-09_16h26.54.746,CL_C2S3,2020.1.3,Win32,60,,,,,i,1,0.670885,1,media/dfnb.png,1,"[1,-1,-1]",1,1,Symb,i,RT,0,0,118,2,4,99,99,i,0.670885,1,2,118,0,118,0,1,,,,,,,
,,,,,,,,,,,,,,,,,,,,3,2,2021-01-09_16h26.54.746,CL_C2S3,2020.1.3,Win32,60,,,,,h,1,0.892235,0,media/dcnb.png,2,"[-1,1,-1]",3,0,Symb,h,RT,0,0,119,2,4,99,99,h,0.892235,1,2,119,0,119,0,1,,,,,,,
,,,,,,,,,,,,,,,,,,,,3,2,2021-01-09_16h26.54.746,CL_C2S3,2020.1.3,Win32,60,,,,,,,,,,,,,,,,,,,,,,,,,,,,,,,,,3,0,3,0,1,,
,,,,,,,,,,,,,,,,,,,,3,2,2021-01-09_16h26.54.746,CL_C2S3,2020.1.3,Win32,60,,,h,24.0656,i,1,0.90146,1,media/dfnb.png,1,"[1,-1,-1]",1,1,Symb,i,RT,0,0,0,2,5,99,99,i,0.90146,1,2,0,0,0,0,1,,,,,,,
,,,,,,,,,,,,,,,,,,,,3,2,2021-01-09_16h26.54.746,CL_C2S3,2020.1.3,Win32,60,,,,,h,1,0.625475,0,media/dcnb.png,1,"[1,-1,-1]",0,0,Symb,h,RT,0,0,1,2,5,99,99,h,0.625475,1,2,1,0,1,0,1,,,,,,,
,,,,,,,,,,,,,,,,,,,,3,2,2021-01-09_16h26.54.746,CL_C2S3,2020.1.3,Win32,60,,,,,u,1,0.70133,2,media/dknb.png,1,"[1,-1,-1]",2,0,Symb,u,RT,0,0,2,2,5,99,99,u,0.70133,1,2,2,0,2,0,1,,,,,,,
,,,,,,,,,,,,,,,,,,,,3,2,2021-01-09_16h26.54.746,CL_C2S3,2020.1.3,Win32,60,,,,,i,1,0.753795,2,media/dknb.png,2,"[-1,1,-1]",5,0,Symb,i,RT,0,0,3,2,5,99,99,i,0.753795,1,2,3,0,3,0,1,,,,,,,
,,,,,,,,,,,,,,,,,,,,3,2,2021-01-09_16h26.54.746,CL_C2S3,2020.1.3,Win32,60,,,,,h,1,0.517615,0,media/dcnb.png,1,"[1,-1,-1]",0,0,Symb,h,RT,0,0,4,2,5,99,99,h,0.517615,1,2,4,0,4,0,1,,,,,,,
,,,,,,,,,,,,,,,,,,,,3,2,2021-01-09_16h26.54.746,CL_C2S3,2020.1.3,Win32,60,,,,,i,1,0.85176,1,media/dfnb.png,1,"[1,-1,-1]",1,1,Symb,i,RT,0,0,5,2,5,99,99,i,0.85176,1,2,5,0,5,0,1,,,,,,,
,,,,,,,,,,,,,,,,,,,,3,2,2021-01-09_16h26.54.746,CL_C2S3,2020.1.3,Win32,60,,,,,u,1,0.543935,1,media/dfnb.png,2,"[-1,1,-1]",4,1,Symb,u,RT,0,0,6,2,5,99,99,u,0.543935,1,2,6,0,6,0,1,,,,,,,
,,,,,,,,,,,,,,,,,,,,3,2,2021-01-09_16h26.54.746,CL_C2S3,2020.1.3,Win32,60,,,,,h,1,0.55145,0,media/dcnb.png,2,"[-1,1,-1]",3,0,Symb,h,RT,0,0,7,2,5,99,99,h,0.55145,1,2,7,0,7,0,1,,,,,,,
,,,,,,,,,,,,,,,,,,,,3,2,2021-01-09_16h26.54.746,CL_C2S3,2020.1.3,Win32,60,,,,,i,1,0.735005,2,media/dknb.png,2,"[-1,1,-1]",5,0,Symb,i,RT,0,0,8,2,5,99,99,i,0.735005,1,2,8,0,8,0,1,,,,,,,
,,,,,,,,,,,,,,,,,,,,3,2,2021-01-09_16h26.54.746,CL_C2S3,2020.1.3,Win32,60,,,,,u,1,0.852005,1,media/dfnb.png,2,"[-1,1,-1]",4,1,Symb,u,RT,0,0,9,2,5,99,99,u,0.852005,1,2,9,0,9,0,1,,,,,,,
,,,,,,,,,,,,,,,,,,,,3,2,2021-01-09_16h26.54.746,CL_C2S3,2020.1.3,Win32,60,,,,,h,1,0.52074,0,media/dcnb.png,2,"[-1,1,-1]",3,0,Symb,h,RT,0,0,10,2,5,99,99,h,0.52074,1,2,10,0,10,0,1,,,,,,,
,,,,,,,,,,,,,,,,,,,,3,2,2021-01-09_16h26.54.746,CL_C2S3,2020.1.3,Win32,60,,,,,u,1,0.63535,2,media/dknb.png,1,"[1,-1,-1]",2,0,Symb,u,RT,0,0,11,2,5,99,99,u,0.63535,1,2,11,0,11,0,1,,,,,,,
,,,,,,,,,,,,,,,,,,,,3,2,2021-01-09_16h26.54.746,CL_C2S3,2020.1.3,Win32,60,,,,,i,1,0.70364,1,media/dfnb.png,1,"[1,-1,-1]",1,1,Symb,i,RT,0,0,12,2,5,99,99,i,0.70364,1,2,12,0,12,0,1,,,,,,,
,,,,,,,,,,,,,,,,,,,,3,2,2021-01-09_16h26.54.746,CL_C2S3,2020.1.3,Win32,60,,,,,i,1,0.60126,2,media/dknb.png,2,"[-1,1,-1]",5,0,Symb,i,RT,0,0,13,2,5,99,99,i,0.60126,1,2,13,0,13,0,1,,,,,,,
,,,,,,,,,,,,,,,,,,,,3,2,2021-01-09_16h26.54.746,CL_C2S3,2020.1.3,Win32,60,,,,,i,0,0.48726,2,media/dknb.png,1,"[1,-1,-1]",2,0,Symb,u,RT,0,0,14,2,5,99,99,i,0.48726,0,2,14,0,14,0,1,,,,,,,
,,,,,,,,,,,,,,,,,,,,3,2,2021-01-09_16h26.54.746,CL_C2S3,2020.1.3,Win32,60,,,,,h,1,0.55079,0,media/dcnb.png,2,"[-1,1,-1]",3,0,Symb,h,RT,0,0,15,2,5,99,99,h,0.55079,1,2,15,0,15,0,1,,,,,,,
,,,,,,,,,,,,,,,,,,,,3,2,2021-01-09_16h26.54.746,CL_C2S3,2020.1.3,Win32,60,,,,,h,1,0.46931,0,media/dcnb.png,1,"[1,-1,-1]",0,0,Symb,h,RT,0,0,16,2,5,99,99,h,0.46931,1,2,16,0,16,0,1,,,,,,,
,,,,,,,,,,,,,,,,,,,,3,2,2021-01-09_16h26.54.746,CL_C2S3,2020.1.3,Win32,60,,,,,i,1,0.72192,2,media/dknb.png,2,"[-1,1,-1]",5,0,Symb,i,RT,0,0,17,2,5,99,99,i,0.72192,1,2,17,0,17,0,1,,,,,,,
,,,,,,,,,,,,,,,,,,,,3,2,2021-01-09_16h26.54.746,CL_C2S3,2020.1.3,Win32,60,,,,,i,0,0.438515,0,media/dcnb.png,2,"[-1,1,-1]",3,0,Symb,h,RT,0,0,18,2,5,99,99,i,0.438515,0,2,18,0,18,0,1,,,,,,,
,,,,,,,,,,,,,,,,,,,,3,2,2021-01-09_16h26.54.746,CL_C2S3,2020.1.3,Win32,60,,,,,u,1,0.772085,1,media/dfnb.png,2,"[-1,1,-1]",4,1,Symb,u,RT,0,0,19,2,5,99,99,u,0.772085,1,2,19,0,19,0,1,,,,,,,
,,,,,,,,,,,,,,,,,,,,3,2,2021-01-09_16h26.54.746,CL_C2S3,2020.1.3,Win32,60,,,,,i,1,0.63436,1,media/dfnb.png,1,"[1,-1,-1]",1,1,Symb,i,RT,0,0,20,2,5,99,99,i,0.63436,1,2,20,0,20,0,1,,,,,,,
,,,,,,,,,,,,,,,,,,,,3,2,2021-01-09_16h26.54.746,CL_C2S3,2020.1.3,Win32,60,,,,,h,1,0.499785,0,media/dcnb.png,1,"[1,-1,-1]",0,0,Symb,h,RT,0,0,21,2,5,99,99,h,0.499785,1,2,21,0,21,0,1,,,,,,,
,,,,,,,,,,,,,,,,,,,,3,2,2021-01-09_16h26.54.746,CL_C2S3,2020.1.3,Win32,60,,,,,u,1,0.71764,1,media/dfnb.png,2,"[-1,1,-1]",4,1,Symb,u,RT,0,0,22,2,5,99,99,u,0.71764,1,2,22,0,22,0,1,,,,,,,
,,,,,,,,,,,,,,,,,,,,3,2,2021-01-09_16h26.54.746,CL_C2S3,2020.1.3,Win32,60,,,,,i,0,0.583945,2,media/dknb.png,1,"[1,-1,-1]",2,0,Symb,u,RT,0,0,23,2,5,99,99,i,0.583945,0,2,23,0,23,0,1,,,,,,,
,,,,,,,,,,,,,,,,,,,,3,2,2021-01-09_16h26.54.746,CL_C2S3,2020.1.3,Win32,60,,,,,u,1,0.81812,1,media/dfnb.png,2,"[-1,1,-1]",4,1,Symb,u,RT,0,0,24,2,5,99,99,u,0.81812,1,2,24,0,24,0,1,,,,,,,
,,,,,,,,,,,,,,,,,,,,3,2,2021-01-09_16h26.54.746,CL_C2S3,2020.1.3,Win32,60,,,,,h,1,0.55084,0,media/dcnb.png,2,"[-1,1,-1]",3,0,Symb,h,RT,0,0,25,2,5,99,99,h,0.55084,1,2,25,0,25,0,1,,,,,,,
,,,,,,,,,,,,,,,,,,,,3,2,2021-01-09_16h26.54.746,CL_C2S3,2020.1.3,Win32,60,,,,,i,1,0.78426,1,media/dfnb.png,1,"[1,-1,-1]",1,1,Symb,i,RT,0,0,26,2,5,99,99,i,0.78426,1,2,26,0,26,0,1,,,,,,,
,,,,,,,,,,,,,,,,,,,,3,2,2021-01-09_16h26.54.746,CL_C2S3,2020.1.3,Win32,60,,,,,i,1,1.56748,2,media/dknb.png,2,"[-1,1,-1]",5,0,Symb,i,RT,0,0,27,2,5,99,99,i,1.56748,1,2,27,0,27,0,1,,,,,,,
,,,,,,,,,,,,,,,,,,,,3,2,2021-01-09_16h26.54.746,CL_C2S3,2020.1.3,Win32,60,,,,,u,1,0.63574,2,media/dknb.png,1,"[1,-1,-1]",2,0,Symb,u,RT,0,0,28,2,5,99,99,u,0.63574,1,2,28,0,28,0,1,,,,,,,
,,,,,,,,,,,,,,,,,,,,3,2,2021-01-09_16h26.54.746,CL_C2S3,2020.1.3,Win32,60,,,,,h,1,0.550565,0,media/dcnb.png,1,"[1,-1,-1]",0,0,Symb,h,RT,0,0,29,2,5,99,99,h,0.550565,1,2,29,0,29,0,1,,,,,,,
,,,,,,,,,,,,,,,,,,,,3,2,2021-01-09_16h26.54.746,CL_C2S3,2020.1.3,Win32,60,,,,,i,1,0.601255,2,media/dknb.png,2,"[-1,1,-1]",5,0,Symb,i,RT,0,0,30,2,5,99,99,i,0.601255,1,2,30,0,30,0,1,,,,,,,
,,,,,,,,,,,,,,,,,,,,3,2,2021-01-09_16h26.54.746,CL_C2S3,2020.1.3,Win32,60,,,,,i,1,0.86803,1,media/dfnb.png,1,"[1,-1,-1]",1,1,Symb,i,RT,0,0,31,2,5,99,99,i,0.86803,1,2,31,0,31,0,1,,,,,,,
,,,,,,,,,,,,,,,,,,,,3,2,2021-01-09_16h26.54.746,CL_C2S3,2020.1.3,Win32,60,,,,,h,1,0.53843,0,media/dcnb.png,2,"[-1,1,-1]",3,0,Symb,h,RT,0,0,32,2,5,99,99,h,0.53843,1,2,32,0,32,0,1,,,,,,,
,,,,,,,,,,,,,,,,,,,,3,2,2021-01-09_16h26.54.746,CL_C2S3,2020.1.3,Win32,60,,,,,u,1,0.52236,1,media/dfnb.png,2,"[-1,1,-1]",4,1,Symb,u,RT,0,0,33,2,5,99,99,u,0.52236,1,2,33,0,33,0,1,,,,,,,
,,,,,,,,,,,,,,,,,,,,3,2,2021-01-09_16h26.54.746,CL_C2S3,2020.1.3,Win32,60,,,,,i,1,1.034485,2,media/dknb.png,2,"[-1,1,-1]",5,0,Symb,i,RT,0,0,34,2,5,99,99,i,1.034485,1,2,34,0,34,0,1,,,,,,,
,,,,,,,,,,,,,,,,,,,,3,2,2021-01-09_16h26.54.746,CL_C2S3,2020.1.3,Win32,60,,,,,u,1,0.981905,1,media/dfnb.png,2,"[-1,1,-1]",4,1,Symb,u,RT,0,0,35,2,5,99,99,u,0.981905,1,2,35,0,35,0,1,,,,,,,
,,,,,,,,,,,,,,,,,,,,3,2,2021-01-09_16h26.54.746,CL_C2S3,2020.1.3,Win32,60,,,,,u,1,0.667665,2,media/dknb.png,1,"[1,-1,-1]",2,0,Symb,u,RT,0,0,36,2,5,99,99,u,0.667665,1,2,36,0,36,0,1,,,,,,,
,,,,,,,,,,,,,,,,,,,,3,2,2021-01-09_16h26.54.746,CL_C2S3,2020.1.3,Win32,60,,,,,h,1,0.41724,0,media/dcnb.png,1,"[1,-1,-1]",0,0,Symb,h,RT,0,0,37,2,5,99,99,h,0.41724,1,2,37,0,37,0,1,,,,,,,
,,,,,,,,,,,,,,,,,,,,3,2,2021-01-09_16h26.54.746,CL_C2S3,2020.1.3,Win32,60,,,,,h,1,0.41765,0,media/dcnb.png,2,"[-1,1,-1]",3,0,Symb,h,RT,0,0,38,2,5,99,99,h,0.41765,1,2,38,0,38,0,1,,,,,,,
,,,,,,,,,,,,,,,,,,,,3,2,2021-01-09_16h26.54.746,CL_C2S3,2020.1.3,Win32,60,,,,,h,1,0.567515,0,media/dcnb.png,1,"[1,-1,-1]",0,0,Symb,h,RT,0,0,39,2,5,99,99,h,0.567515,1,2,39,0,39,0,1,,,,,,,
,,,,,,,,,,,,,,,,,,,,3,2,2021-01-09_16h26.54.746,CL_C2S3,2020.1.3,Win32,60,,,,,i,1,0.81986,1,media/dfnb.png,1,"[1,-1,-1]",1,1,Symb,i,RT,0,0,40,2,5,99,99,i,0.81986,1,2,40,0,40,0,1,,,,,,,
,,,,,,,,,,,,,,,,,,,,3,2,2021-01-09_16h26.54.746,CL_C2S3,2020.1.3,Win32,60,,,,,u,1,1.150825,2,media/dknb.png,1,"[1,-1,-1]",2,0,Symb,u,RT,0,0,41,2,5,99,99,u,1.150825,1,2,41,0,41,0,1,,,,,,,
,,,,,,,,,,,,,,,,,,,,3,2,2021-01-09_16h26.54.746,CL_C2S3,2020.1.3,Win32,60,,,,,u,1,0.45103,2,media/dknb.png,1,"[1,-1,-1]",2,0,Symb,u,RT,0,0,42,2,5,99,99,u,0.45103,1,2,42,0,42,0,1,,,,,,,
,,,,,,,,,,,,,,,,,,,,3,2,2021-01-09_16h26.54.746,CL_C2S3,2020.1.3,Win32,60,,,,,i,1,2.100815,1,media/dfnb.png,1,"[1,-1,-1]",1,1,Symb,i,RT,0,0,43,2,5,99,99,i,2.100815,1,2,43,0,43,0,1,,,,,,,
,,,,,,,,,,,,,,,,,,,,3,2,2021-01-09_16h26.54.746,CL_C2S3,2020.1.3,Win32,60,,,,,h,1,0.667435,0,media/dcnb.png,2,"[-1,1,-1]",3,0,Symb,h,RT,0,0,44,2,5,99,99,h,0.667435,1,2,44,0,44,0,1,,,,,,,
