Ctx_Color_List,stim_key_map_ctx1,stim_key_map_ctx2,stim_key_remap_ctx1,stim_key_remap_ctx2,Import_File.thisRepN,Import_File.thisTrialN,Import_File.thisN,Import_File.thisIndex,Import_File.ran,Stim,Ctx_Color,Key,KeyNum,imStim,X_Pos,Y_Pos,Hand,Check,Cross,participant,session,date,expName,psychopyVersion,OS,frameRate,Instr_RT_Old_Press.keys,Instr_RT_Old_Press.rt,Instr_Block_Num_Press.keys,Instr_Block_Num_Press.rt,RT_Press.keys,RT_Press.corr,RT_Press.rt,Symbol,Shape,Ctx,Color,Stim_Num,Key_Num,Stim_Type,True_Key,Block_Type,Remap,Repeat_Count,Trial_Count,Grp,Block_Num,Prep_Time,Ctx_Prep_Time,Actual_Press,RT,Correct,Session,RT_Old_Iter.thisRepN,RT_Old_Iter.thisTrialN,RT_Old_Iter.thisN,RT_Old_Iter.thisIndex,RT_Old_Iter.ran,RT_Old_Block.thisRepN,RT_Old_Block.thisTrialN,RT_Old_Block.thisN,RT_Old_Block.thisIndex,RT_Old_Block.ran,Instr_End_Exp_Key.keys,Instr_End_Exp_Key.rt
"[[1,-1,-1],[-1,1,-1]]","[0,2,1]","[0,1,2]","[0,1,2]","[0,2,1]",0,0,0,0,1,0,"[1, -1, -1]",h,0,media/dcnb.png,-0.038,0.075,media/hand.png,media/check.png,media/cross.png,3,4,2021-01-11_12h39.10.663,CL_C2S3,2020.1.3,Win32,60,,,,,,,,,,,,,,,,,,,,,,,,,,,,,,,,,,,,,,,
"[[1,-1,-1],[-1,1,-1],[1,-1,-1],[-1,1,-1]]","[0,2,1]","[0,1,2]","[0,1,2]","[0,2,1]",0,1,1,1,1,1,"[-1, 1, -1]",u,1,media/dfnb.png,0.014,0.1,,,,3,4,2021-01-11_12h39.10.663,CL_C2S3,2020.1.3,Win32,60,,,,,,,,,,,,,,,,,,,,,,,,,,,,,,,,,,,,,,,
"[[1,-1,-1],[-1,1,-1],[1,-1,-1],[-1,1,-1],[1,-1,-1],[-1,1,-1]]","[0,2,1]","[0,1,2]","[0,1,2]","[0,2,1]",0,2,2,2,1,2,,i,0,media/dknb.png,0.057,0.08,,,,3,4,2021-01-11_12h39.10.663,CL_C2S3,2020.1.3,Win32,60,,,,,,,,,,,,,,,,,,,,,,,,,,,,,,,,,,,,,,,
,,,,,,,,,,,,,,,,,,,,3,4,2021-01-11_12h39.10.663,CL_C2S3,2020.1.3,Win32,60,h,9.897925,h,0.05201,i,1,0.85463,2,media/dknb.png,2,"[-1,1,-1]",5,0,Symb,i,RT,0,0,0,2,1,99,99,i,0.85463,1,4,0,0,0,0,1,,,,,,,
,,,,,,,,,,,,,,,,,,,,3,4,2021-01-11_12h39.10.663,CL_C2S3,2020.1.3,Win32,60,,,,,u,1,0.501305,2,media/dknb.png,1,"[1,-1,-1]",2,0,Symb,u,RT,0,0,1,2,1,99,99,u,0.501305,1,4,1,0,1,0,1,,,,,,,
,,,,,,,,,,,,,,,,,,,,3,4,2021-01-11_12h39.10.663,CL_C2S3,2020.1.3,Win32,60,,,,,u,1,0.567355,2,media/dknb.png,1,"[1,-1,-1]",2,0,Symb,u,RT,0,0,2,2,1,99,99,u,0.567355,1,4,2,0,2,0,1,,,,,,,
,,,,,,,,,,,,,,,,,,,,3,4,2021-01-11_12h39.10.663,CL_C2S3,2020.1.3,Win32,60,,,,,i,1,0.61875,1,media/dfnb.png,1,"[1,-1,-1]",1,1,Symb,i,RT,0,0,3,2,1,99,99,i,0.61875,1,4,3,0,3,0,1,,,,,,,
,,,,,,,,,,,,,,,,,,,,3,4,2021-01-11_12h39.10.663,CL_C2S3,2020.1.3,Win32,60,,,,,i,1,0.484845,1,media/dfnb.png,1,"[1,-1,-1]",1,1,Symb,i,RT,0,0,4,2,1,99,99,i,0.484845,1,4,4,0,4,0,1,,,,,,,
,,,,,,,,,,,,,,,,,,,,3,4,2021-01-11_12h39.10.663,CL_C2S3,2020.1.3,Win32,60,,,,,h,1,0.51591,0,media/dcnb.png,2,"[-1,1,-1]",3,0,Symb,h,RT,0,0,5,2,1,99,99,h,0.51591,1,4,5,0,5,0,1,,,,,,,
,,,,,,,,,,,,,,,,,,,,3,4,2021-01-11_12h39.10.663,CL_C2S3,2020.1.3,Win32,60,,,,,h,1,0.38438,0,media/dcnb.png,1,"[1,-1,-1]",0,0,Symb,h,RT,0,0,6,2,1,99,99,h,0.38438,1,4,6,0,6,0,1,,,,,,,
,,,,,,,,,,,,,,,,,,,,3,4,2021-01-11_12h39.10.663,CL_C2S3,2020.1.3,Win32,60,,,,,i,0,0.71943,1,media/dfnb.png,2,"[-1,1,-1]",4,1,Symb,u,RT,0,0,7,2,1,99,99,i,0.71943,0,4,7,0,7,0,1,,,,,,,
,,,,,,,,,,,,,,,,,,,,3,4,2021-01-11_12h39.10.663,CL_C2S3,2020.1.3,Win32,60,,,,,h,1,0.51783,0,media/dcnb.png,2,"[-1,1,-1]",3,0,Symb,h,RT,0,0,8,2,1,99,99,h,0.51783,1,4,8,0,8,0,1,,,,,,,
,,,,,,,,,,,,,,,,,,,,3,4,2021-01-11_12h39.10.663,CL_C2S3,2020.1.3,Win32,60,,,,,i,1,0.6512,2,media/dknb.png,2,"[-1,1,-1]",5,0,Symb,i,RT,0,0,9,2,1,99,99,i,0.6512,1,4,9,0,9,0,1,,,,,,,
,,,,,,,,,,,,,,,,,,,,3,4,2021-01-11_12h39.10.663,CL_C2S3,2020.1.3,Win32,60,,,,,h,1,0.61756,0,media/dcnb.png,1,"[1,-1,-1]",0,0,Symb,h,RT,0,0,10,2,1,99,99,h,0.61756,1,4,10,0,10,0,1,,,,,,,
,,,,,,,,,,,,,,,,,,,,3,4,2021-01-11_12h39.10.663,CL_C2S3,2020.1.3,Win32,60,,,,,u,1,0.784265,1,media/dfnb.png,2,"[-1,1,-1]",4,1,Symb,u,RT,0,0,11,2,1,99,99,u,0.784265,1,4,11,0,11,0,1,,,,,,,
,,,,,,,,,,,,,,,,,,,,3,4,2021-01-11_12h39.10.663,CL_C2S3,2020.1.3,Win32,60,,,,,i,1,1.167665,2,media/dknb.png,2,"[-1,1,-1]",5,0,Symb,i,RT,0,0,12,2,1,99,99,i,1.167665,1,4,12,0,12,0,1,,,,,,,
,,,,,,,,,,,,,,,,,,,,3,4,2021-01-11_12h39.10.663,CL_C2S3,2020.1.3,Win32,60,,,,,h,1,0.467565,0,media/dcnb.png,1,"[1,-1,-1]",0,0,Symb,h,RT,0,0,13,2,1,99,99,h,0.467565,1,4,13,0,13,0,1,,,,,,,
,,,,,,,,,,,,,,,,,,,,3,4,2021-01-11_12h39.10.663,CL_C2S3,2020.1.3,Win32,60,,,,,i,1,0.65106,2,media/dknb.png,2,"[-1,1,-1]",5,0,Symb,i,RT,0,0,14,2,1,99,99,i,0.65106,1,4,14,0,14,0,1,,,,,,,
,,,,,,,,,,,,,,,,,,,,3,4,2021-01-11_12h39.10.663,CL_C2S3,2020.1.3,Win32,60,,,,,u,1,0.48713,2,media/dknb.png,1,"[1,-1,-1]",2,0,Symb,u,RT,0,0,15,2,1,99,99,u,0.48713,1,4,15,0,15,0,1,,,,,,,
,,,,,,,,,,,,,,,,,,,,3,4,2021-01-11_12h39.10.663,CL_C2S3,2020.1.3,Win32,60,,,,,h,1,0.484365,0,media/dcnb.png,2,"[-1,1,-1]",3,0,Symb,h,RT,0,0,16,2,1,99,99,h,0.484365,1,4,16,0,16,0,1,,,,,,,
,,,,,,,,,,,,,,,,,,,,3,4,2021-01-11_12h39.10.663,CL_C2S3,2020.1.3,Win32,60,,,,,u,1,0.602095,1,media/dfnb.png,2,"[-1,1,-1]",4,1,Symb,u,RT,0,0,17,2,1,99,99,u,0.602095,1,4,17,0,17,0,1,,,,,,,
,,,,,,,,,,,,,,,,,,,,3,4,2021-01-11_12h39.10.663,CL_C2S3,2020.1.3,Win32,60,,,,,h,1,0.51598,0,media/dcnb.png,2,"[-1,1,-1]",3,0,Symb,h,RT,0,0,18,2,1,99,99,h,0.51598,1,4,18,0,18,0,1,,,,,,,
,,,,,,,,,,,,,,,,,,,,3,4,2021-01-11_12h39.10.663,CL_C2S3,2020.1.3,Win32,60,,,,,i,1,0.551175,1,media/dfnb.png,1,"[1,-1,-1]",1,1,Symb,i,RT,0,0,19,2,1,99,99,i,0.551175,1,4,19,0,19,0,1,,,,,,,
,,,,,,,,,,,,,,,,,,,,3,4,2021-01-11_12h39.10.663,CL_C2S3,2020.1.3,Win32,60,,,,,u,1,0.50102,2,media/dknb.png,1,"[1,-1,-1]",2,0,Symb,u,RT,0,0,20,2,1,99,99,u,0.50102,1,4,20,0,20,0,1,,,,,,,
,,,,,,,,,,,,,,,,,,,,3,4,2021-01-11_12h39.10.663,CL_C2S3,2020.1.3,Win32,60,,,,,h,1,0.41545,0,media/dcnb.png,1,"[1,-1,-1]",0,0,Symb,h,RT,0,0,21,2,1,99,99,h,0.41545,1,4,21,0,21,0,1,,,,,,,
,,,,,,,,,,,,,,,,,,,,3,4,2021-01-11_12h39.10.663,CL_C2S3,2020.1.3,Win32,60,,,,,i,1,0.58439,1,media/dfnb.png,1,"[1,-1,-1]",1,1,Symb,i,RT,0,0,22,2,1,99,99,i,0.58439,1,4,22,0,22,0,1,,,,,,,
,,,,,,,,,,,,,,,,,,,,3,4,2021-01-11_12h39.10.663,CL_C2S3,2020.1.3,Win32,60,,,,,u,1,0.451105,1,media/dfnb.png,2,"[-1,1,-1]",4,1,Symb,u,RT,0,0,23,2,1,99,99,u,0.451105,1,4,23,0,23,0,1,,,,,,,
,,,,,,,,,,,,,,,,,,,,3,4,2021-01-11_12h39.10.663,CL_C2S3,2020.1.3,Win32,60,,,,,u,1,0.5345,2,media/dknb.png,1,"[1,-1,-1]",2,0,Symb,u,RT,0,0,24,2,1,99,99,u,0.5345,1,4,24,0,24,0,1,,,,,,,
,,,,,,,,,,,,,,,,,,,,3,4,2021-01-11_12h39.10.663,CL_C2S3,2020.1.3,Win32,60,,,,,h,1,0.48435,0,media/dcnb.png,1,"[1,-1,-1]",0,0,Symb,h,RT,0,0,25,2,1,99,99,h,0.48435,1,4,25,0,25,0,1,,,,,,,
,,,,,,,,,,,,,,,,,,,,3,4,2021-01-11_12h39.10.663,CL_C2S3,2020.1.3,Win32,60,,,,,i,1,0.600975,2,media/dknb.png,2,"[-1,1,-1]",5,0,Symb,i,RT,0,0,26,2,1,99,99,i,0.600975,1,4,26,0,26,0,1,,,,,,,
,,,,,,,,,,,,,,,,,,,,3,4,2021-01-11_12h39.10.663,CL_C2S3,2020.1.3,Win32,60,,,,,u,0,0.48447,1,media/dfnb.png,1,"[1,-1,-1]",1,1,Symb,i,RT,0,0,27,2,1,99,99,u,0.48447,0,4,27,0,27,0,1,,,,,,,
,,,,,,,,,,,,,,,,,,,,3,4,2021-01-11_12h39.10.663,CL_C2S3,2020.1.3,Win32,60,,,,,h,1,0.50094,0,media/dcnb.png,2,"[-1,1,-1]",3,0,Symb,h,RT,0,0,28,2,1,99,99,h,0.50094,1,4,28,0,28,0,1,,,,,,,
,,,,,,,,,,,,,,,,,,,,3,4,2021-01-11_12h39.10.663,CL_C2S3,2020.1.3,Win32,60,,,,,u,1,0.60096,1,media/dfnb.png,2,"[-1,1,-1]",4,1,Symb,u,RT,0,0,29,2,1,99,99,u,0.60096,1,4,29,0,29,0,1,,,,,,,
,,,,,,,,,,,,,,,,,,,,3,4,2021-01-11_12h39.10.663,CL_C2S3,2020.1.3,Win32,60,,,,,h,1,0.534565,0,media/dcnb.png,2,"[-1,1,-1]",3,0,Symb,h,RT,0,0,30,2,1,99,99,h,0.534565,1,4,30,0,30,0,1,,,,,,,
,,,,,,,,,,,,,,,,,,,,3,4,2021-01-11_12h39.10.663,CL_C2S3,2020.1.3,Win32,60,,,,,h,1,0.367855,0,media/dcnb.png,1,"[1,-1,-1]",0,0,Symb,h,RT,0,0,31,2,1,99,99,h,0.367855,1,4,31,0,31,0,1,,,,,,,
,,,,,,,,,,,,,,,,,,,,3,4,2021-01-11_12h39.10.663,CL_C2S3,2020.1.3,Win32,60,,,,,i,1,0.55121,1,media/dfnb.png,1,"[1,-1,-1]",1,1,Symb,i,RT,0,0,32,2,1,99,99,i,0.55121,1,4,32,0,32,0,1,,,,,,,
,,,,,,,,,,,,,,,,,,,,3,4,2021-01-11_12h39.10.663,CL_C2S3,2020.1.3,Win32,60,,,,,u,1,0.50148,1,media/dfnb.png,2,"[-1,1,-1]",4,1,Symb,u,RT,0,0,33,2,1,99,99,u,0.50148,1,4,33,0,33,0,1,,,,,,,
,,,,,,,,,,,,,,,,,,,,3,4,2021-01-11_12h39.10.663,CL_C2S3,2020.1.3,Win32,60,,,,,i,1,0.436835,1,media/dfnb.png,1,"[1,-1,-1]",1,1,Symb,i,RT,0,0,34,2,1,99,99,i,0.436835,1,4,34,0,34,0,1,,,,,,,
,,,,,,,,,,,,,,,,,,,,3,4,2021-01-11_12h39.10.663,CL_C2S3,2020.1.3,Win32,60,,,,,i,1,0.55108,2,media/dknb.png,2,"[-1,1,-1]",5,0,Symb,i,RT,0,0,35,2,1,99,99,i,0.55108,1,4,35,0,35,0,1,,,,,,,
,,,,,,,,,,,,,,,,,,,,3,4,2021-01-11_12h39.10.663,CL_C2S3,2020.1.3,Win32,60,,,,,i,0,0.618345,1,media/dfnb.png,2,"[-1,1,-1]",4,1,Symb,u,RT,0,0,36,2,1,99,99,i,0.618345,0,4,36,0,36,0,1,,,,,,,
,,,,,,,,,,,,,,,,,,,,3,4,2021-01-11_12h39.10.663,CL_C2S3,2020.1.3,Win32,60,,,,,h,1,0.66771,0,media/dcnb.png,2,"[-1,1,-1]",3,0,Symb,h,RT,0,0,37,2,1,99,99,h,0.66771,1,4,37,0,37,0,1,,,,,,,
,,,,,,,,,,,,,,,,,,,,3,4,2021-01-11_12h39.10.663,CL_C2S3,2020.1.3,Win32,60,,,,,i,1,0.667775,2,media/dknb.png,2,"[-1,1,-1]",5,0,Symb,i,RT,0,0,38,2,1,99,99,i,0.667775,1,4,38,0,38,0,1,,,,,,,
,,,,,,,,,,,,,,,,,,,,3,4,2021-01-11_12h39.10.663,CL_C2S3,2020.1.3,Win32,60,,,,,u,1,0.500945,2,media/dknb.png,1,"[1,-1,-1]",2,0,Symb,u,RT,0,0,39,2,1,99,99,u,0.500945,1,4,39,0,39,0,1,,,,,,,
,,,,,,,,,,,,,,,,,,,,3,4,2021-01-11_12h39.10.663,CL_C2S3,2020.1.3,Win32,60,,,,,h,1,0.501025,0,media/dcnb.png,1,"[1,-1,-1]",0,0,Symb,h,RT,0,0,40,2,1,99,99,h,0.501025,1,4,40,0,40,0,1,,,,,,,
,,,,,,,,,,,,,,,,,,,,3,4,2021-01-11_12h39.10.663,CL_C2S3,2020.1.3,Win32,60,,,,,u,1,0.667795,2,media/dknb.png,1,"[1,-1,-1]",2,0,Symb,u,RT,0,0,41,2,1,99,99,u,0.667795,1,4,41,0,41,0,1,,,,,,,
,,,,,,,,,,,,,,,,,,,,3,4,2021-01-11_12h39.10.663,CL_C2S3,2020.1.3,Win32,60,,,,,i,1,0.58448,2,media/dknb.png,2,"[-1,1,-1]",5,0,Symb,i,RT,0,0,42,2,1,99,99,i,0.58448,1,4,42,0,42,0,1,,,,,,,
,,,,,,,,,,,,,,,,,,,,3,4,2021-01-11_12h39.10.663,CL_C2S3,2020.1.3,Win32,60,,,,,h,1,0.51733,0,media/dcnb.png,2,"[-1,1,-1]",3,0,Symb,h,RT,0,0,43,2,1,99,99,h,0.51733,1,4,43,0,43,0,1,,,,,,,
,,,,,,,,,,,,,,,,,,,,3,4,2021-01-11_12h39.10.663,CL_C2S3,2020.1.3,Win32,60,,,,,i,1,0.917625,2,media/dknb.png,2,"[-1,1,-1]",5,0,Symb,i,RT,0,0,44,2,1,99,99,i,0.917625,1,4,44,0,44,0,1,,,,,,,
,,,,,,,,,,,,,,,,,,,,3,4,2021-01-11_12h39.10.663,CL_C2S3,2020.1.3,Win32,60,,,,,u,1,0.785495,1,media/dfnb.png,2,"[-1,1,-1]",4,1,Symb,u,RT,0,0,45,2,1,99,99,u,0.785495,1,4,45,0,45,0,1,,,,,,,
,,,,,,,,,,,,,,,,,,,,3,4,2021-01-11_12h39.10.663,CL_C2S3,2020.1.3,Win32,60,,,,,h,1,0.504035,0,media/dcnb.png,1,"[1,-1,-1]",0,0,Symb,h,RT,0,0,46,2,1,99,99,h,0.504035,1,4,46,0,46,0,1,,,,,,,
,,,,,,,,,,,,,,,,,,,,3,4,2021-01-11_12h39.10.663,CL_C2S3,2020.1.3,Win32,60,,,,,h,1,0.42194,0,media/dcnb.png,1,"[1,-1,-1]",0,0,Symb,h,RT,0,0,47,2,1,99,99,h,0.42194,1,4,47,0,47,0,1,,,,,,,
,,,,,,,,,,,,,,,,,,,,3,4,2021-01-11_12h39.10.663,CL_C2S3,2020.1.3,Win32,60,,,,,u,1,0.685275,1,media/dfnb.png,2,"[-1,1,-1]",4,1,Symb,u,RT,0,0,48,2,1,99,99,u,0.685275,1,4,48,0,48,0,1,,,,,,,
,,,,,,,,,,,,,,,,,,,,3,4,2021-01-11_12h39.10.663,CL_C2S3,2020.1.3,Win32,60,,,,,i,1,0.60311,1,media/dfnb.png,1,"[1,-1,-1]",1,1,Symb,i,RT,0,0,49,2,1,99,99,i,0.60311,1,4,49,0,49,0,1,,,,,,,
,,,,,,,,,,,,,,,,,,,,3,4,2021-01-11_12h39.10.663,CL_C2S3,2020.1.3,Win32,60,,,,,h,1,0.51908,0,media/dcnb.png,2,"[-1,1,-1]",3,0,Symb,h,RT,0,0,50,2,1,99,99,h,0.51908,1,4,50,0,50,0,1,,,,,,,
,,,,,,,,,,,,,,,,,,,,3,4,2021-01-11_12h39.10.663,CL_C2S3,2020.1.3,Win32,60,,,,,i,1,0.869735,1,media/dfnb.png,1,"[1,-1,-1]",1,1,Symb,i,RT,0,0,51,2,1,99,99,i,0.869735,1,4,51,0,51,0,1,,,,,,,
,,,,,,,,,,,,,,,,,,,,3,4,2021-01-11_12h39.10.663,CL_C2S3,2020.1.3,Win32,60,,,,,u,1,0.55243,2,media/dknb.png,1,"[1,-1,-1]",2,0,Symb,u,RT,0,0,52,2,1,99,99,u,0.55243,1,4,52,0,52,0,1,,,,,,,
,,,,,,,,,,,,,,,,,,,,3,4,2021-01-11_12h39.10.663,CL_C2S3,2020.1.3,Win32,60,,,,,u,1,0.68623,2,media/dknb.png,1,"[1,-1,-1]",2,0,Symb,u,RT,0,0,53,2,1,99,99,u,0.68623,1,4,53,0,53,0,1,,,,,,,
,,,,,,,,,,,,,,,,,,,,3,4,2021-01-11_12h39.10.663,CL_C2S3,2020.1.3,Win32,60,,,,,i,1,0.64979,1,media/dfnb.png,1,"[1,-1,-1]",1,1,Symb,i,RT,0,0,54,2,1,99,99,i,0.64979,1,4,54,0,54,0,1,,,,,,,
,,,,,,,,,,,,,,,,,,,,3,4,2021-01-11_12h39.10.663,CL_C2S3,2020.1.3,Win32,60,,,,,u,1,0.619245,2,media/dknb.png,1,"[1,-1,-1]",2,0,Symb,u,RT,0,0,55,2,1,99,99,u,0.619245,1,4,55,0,55,0,1,,,,,,,
,,,,,,,,,,,,,,,,,,,,3,4,2021-01-11_12h39.10.663,CL_C2S3,2020.1.3,Win32,60,,,,,i,1,0.584675,2,media/dknb.png,2,"[-1,1,-1]",5,0,Symb,i,RT,0,0,56,2,1,99,99,i,0.584675,1,4,56,0,56,0,1,,,,,,,
,,,,,,,,,,,,,,,,,,,,3,4,2021-01-11_12h39.10.663,CL_C2S3,2020.1.3,Win32,60,,,,,h,1,0.50123,0,media/dcnb.png,2,"[-1,1,-1]",3,0,Symb,h,RT,0,0,57,2,1,99,99,h,0.50123,1,4,57,0,57,0,1,,,,,,,
,,,,,,,,,,,,,,,,,,,,3,4,2021-01-11_12h39.10.663,CL_C2S3,2020.1.3,Win32,60,,,,,h,1,0.369195,0,media/dcnb.png,1,"[1,-1,-1]",0,0,Symb,h,RT,0,0,58,2,1,99,99,h,0.369195,1,4,58,0,58,0,1,,,,,,,
,,,,,,,,,,,,,,,,,,,,3,4,2021-01-11_12h39.10.663,CL_C2S3,2020.1.3,Win32,60,,,,,u,1,0.73448,1,media/dfnb.png,2,"[-1,1,-1]",4,1,Symb,u,RT,0,0,59,2,1,99,99,u,0.73448,1,4,59,0,59,0,1,,,,,,,
,,,,,,,,,,,,,,,,,,,,3,4,2021-01-11_12h39.10.663,CL_C2S3,2020.1.3,Win32,60,,,,,i,1,0.5699,2,media/dknb.png,2,"[-1,1,-1]",5,0,Symb,i,RT,0,0,60,2,1,99,99,i,0.5699,1,4,60,0,60,0,1,,,,,,,
,,,,,,,,,,,,,,,,,,,,3,4,2021-01-11_12h39.10.663,CL_C2S3,2020.1.3,Win32,60,,,,,i,1,0.75367,1,media/dfnb.png,1,"[1,-1,-1]",1,1,Symb,i,RT,0,0,61,2,1,99,99,i,0.75367,1,4,61,0,61,0,1,,,,,,,
,,,,,,,,,,,,,,,,,,,,3,4,2021-01-11_12h39.10.663,CL_C2S3,2020.1.3,Win32,60,,,,,u,1,0.584375,2,media/dknb.png,1,"[1,-1,-1]",2,0,Symb,u,RT,0,0,62,2,1,99,99,u,0.584375,1,4,62,0,62,0,1,,,,,,,
,,,,,,,,,,,,,,,,,,,,3,4,2021-01-11_12h39.10.663,CL_C2S3,2020.1.3,Win32,60,,,,,u,1,0.602345,1,media/dfnb.png,2,"[-1,1,-1]",4,1,Symb,u,RT,0,0,63,2,1,99,99,u,0.602345,1,4,63,0,63,0,1,,,,,,,
,,,,,,,,,,,,,,,,,,,,3,4,2021-01-11_12h39.10.663,CL_C2S3,2020.1.3,Win32,60,,,,,u,1,0.76523,2,media/dknb.png,1,"[1,-1,-1]",2,0,Symb,u,RT,0,0,64,2,1,99,99,u,0.76523,1,4,64,0,64,0,1,,,,,,,
,,,,,,,,,,,,,,,,,,,,3,4,2021-01-11_12h39.10.663,CL_C2S3,2020.1.3,Win32,60,,,,,h,1,0.367345,0,media/dcnb.png,1,"[1,-1,-1]",0,0,Symb,h,RT,0,0,65,2,1,99,99,h,0.367345,1,4,65,0,65,0,1,,,,,,,
,,,,,,,,,,,,,,,,,,,,3,4,2021-01-11_12h39.10.663,CL_C2S3,2020.1.3,Win32,60,,,,,u,1,0.735165,1,media/dfnb.png,2,"[-1,1,-1]",4,1,Symb,u,RT,0,0,66,2,1,99,99,u,0.735165,1,4,66,0,66,0,1,,,,,,,
,,,,,,,,,,,,,,,,,,,,3,4,2021-01-11_12h39.10.663,CL_C2S3,2020.1.3,Win32,60,,,,,h,1,0.593125,0,media/dcnb.png,1,"[1,-1,-1]",0,0,Symb,h,RT,0,0,67,2,1,99,99,h,0.593125,1,4,67,0,67,0,1,,,,,,,
,,,,,,,,,,,,,,,,,,,,3,4,2021-01-11_12h39.10.663,CL_C2S3,2020.1.3,Win32,60,,,,,i,1,0.634295,2,media/dknb.png,2,"[-1,1,-1]",5,0,Symb,i,RT,0,0,68,2,1,99,99,i,0.634295,1,4,68,0,68,0,1,,,,,,,
,,,,,,,,,,,,,,,,,,,,3,4,2021-01-11_12h39.10.663,CL_C2S3,2020.1.3,Win32,60,,,,,i,1,1.050925,1,media/dfnb.png,1,"[1,-1,-1]",1,1,Symb,i,RT,0,0,69,2,1,99,99,i,1.050925,1,4,69,0,69,0,1,,,,,,,
,,,,,,,,,,,,,,,,,,,,3,4,2021-01-11_12h39.10.663,CL_C2S3,2020.1.3,Win32,60,,,,,h,1,0.484835,0,media/dcnb.png,2,"[-1,1,-1]",3,0,Symb,h,RT,0,0,70,2,1,99,99,h,0.484835,1,4,70,0,70,0,1,,,,,,,
,,,,,,,,,,,,,,,,,,,,3,4,2021-01-11_12h39.10.663,CL_C2S3,2020.1.3,Win32,60,,,,,h,1,0.484355,0,media/dcnb.png,2,"[-1,1,-1]",3,0,Symb,h,RT,0,0,71,2,1,99,99,h,0.484355,1,4,71,0,71,0,1,,,,,,,
,,,,,,,,,,,,,,,,,,,,3,4,2021-01-11_12h39.10.663,CL_C2S3,2020.1.3,Win32,60,,,,,u,1,0.50102,2,media/dknb.png,1,"[1,-1,-1]",2,0,Symb,u,RT,0,0,72,2,1,99,99,u,0.50102,1,4,72,0,72,0,1,,,,,,,
,,,,,,,,,,,,,,,,,,,,3,4,2021-01-11_12h39.10.663,CL_C2S3,2020.1.3,Win32,60,,,,,h,1,0.51767,0,media/dcnb.png,1,"[1,-1,-1]",0,0,Symb,h,RT,0,0,73,2,1,99,99,h,0.51767,1,4,73,0,73,0,1,,,,,,,
,,,,,,,,,,,,,,,,,,,,3,4,2021-01-11_12h39.10.663,CL_C2S3,2020.1.3,Win32,60,,,,,u,1,0.57038,2,media/dknb.png,1,"[1,-1,-1]",2,0,Symb,u,RT,0,0,74,2,1,99,99,u,0.57038,1,4,74,0,74,0,1,,,,,,,
,,,,,,,,,,,,,,,,,,,,3,4,2021-01-11_12h39.10.663,CL_C2S3,2020.1.3,Win32,60,,,,,h,1,0.45385,0,media/dcnb.png,2,"[-1,1,-1]",3,0,Symb,h,RT,0,0,75,2,1,99,99,h,0.45385,1,4,75,0,75,0,1,,,,,,,
,,,,,,,,,,,,,,,,,,,,3,4,2021-01-11_12h39.10.663,CL_C2S3,2020.1.3,Win32,60,,,,,i,1,0.71967,1,media/dfnb.png,1,"[1,-1,-1]",1,1,Symb,i,RT,0,0,76,2,1,99,99,i,0.71967,1,4,76,0,76,0,1,,,,,,,
,,,,,,,,,,,,,,,,,,,,3,4,2021-01-11_12h39.10.663,CL_C2S3,2020.1.3,Win32,60,,,,,h,1,0.51832,0,media/dcnb.png,2,"[-1,1,-1]",3,0,Symb,h,RT,0,0,77,2,1,99,99,h,0.51832,1,4,77,0,77,0,1,,,,,,,
,,,,,,,,,,,,,,,,,,,,3,4,2021-01-11_12h39.10.663,CL_C2S3,2020.1.3,Win32,60,,,,,i,1,0.68443,2,media/dknb.png,2,"[-1,1,-1]",5,0,Symb,i,RT,0,0,78,2,1,99,99,i,0.68443,1,4,78,0,78,0,1,,,,,,,
,,,,,,,,,,,,,,,,,,,,3,4,2021-01-11_12h39.10.663,CL_C2S3,2020.1.3,Win32,60,,,,,h,1,0.567585,0,media/dcnb.png,1,"[1,-1,-1]",0,0,Symb,h,RT,0,0,79,2,1,99,99,h,0.567585,1,4,79,0,79,0,1,,,,,,,
,,,,,,,,,,,,,,,,,,,,3,4,2021-01-11_12h39.10.663,CL_C2S3,2020.1.3,Win32,60,,,,,u,0,0.736825,1,media/dfnb.png,1,"[1,-1,-1]",1,1,Symb,i,RT,0,0,80,2,1,99,99,u,0.736825,0,4,80,0,80,0,1,,,,,,,
,,,,,,,,,,,,,,,,,,,,3,4,2021-01-11_12h39.10.663,CL_C2S3,2020.1.3,Win32,60,,,,,u,1,0.63402,1,media/dfnb.png,2,"[-1,1,-1]",4,1,Symb,u,RT,0,0,81,2,1,99,99,u,0.63402,1,4,81,0,81,0,1,,,,,,,
,,,,,,,,,,,,,,,,,,,,3,4,2021-01-11_12h39.10.663,CL_C2S3,2020.1.3,Win32,60,,,,,i,1,0.601085,2,media/dknb.png,2,"[-1,1,-1]",5,0,Symb,i,RT,0,0,82,2,1,99,99,i,0.601085,1,4,82,0,82,0,1,,,,,,,
,,,,,,,,,,,,,,,,,,,,3,4,2021-01-11_12h39.10.663,CL_C2S3,2020.1.3,Win32,60,,,,,u,1,1.28336,1,media/dfnb.png,2,"[-1,1,-1]",4,1,Symb,u,RT,0,0,83,2,1,99,99,u,1.28336,1,4,83,0,83,0,1,,,,,,,
,,,,,,,,,,,,,,,,,,,,3,4,2021-01-11_12h39.10.663,CL_C2S3,2020.1.3,Win32,60,,,,,u,1,0.45088,1,media/dfnb.png,2,"[-1,1,-1]",4,1,Symb,u,RT,0,0,84,2,1,99,99,u,0.45088,1,4,84,0,84,0,1,,,,,,,
,,,,,,,,,,,,,,,,,,,,3,4,2021-01-11_12h39.10.663,CL_C2S3,2020.1.3,Win32,60,,,,,i,1,0.52627,1,media/dfnb.png,1,"[1,-1,-1]",1,1,Symb,i,RT,0,0,85,2,1,99,99,i,0.52627,1,4,85,0,85,0,1,,,,,,,
,,,,,,,,,,,,,,,,,,,,3,4,2021-01-11_12h39.10.663,CL_C2S3,2020.1.3,Win32,60,,,,,i,1,0.60096,2,media/dknb.png,2,"[-1,1,-1]",5,0,Symb,i,RT,0,0,86,2,1,99,99,i,0.60096,1,4,86,0,86,0,1,,,,,,,
,,,,,,,,,,,,,,,,,,,,3,4,2021-01-11_12h39.10.663,CL_C2S3,2020.1.3,Win32,60,,,,,h,1,0.468165,0,media/dcnb.png,2,"[-1,1,-1]",3,0,Symb,h,RT,0,0,87,2,1,99,99,h,0.468165,1,4,87,0,87,0,1,,,,,,,
,,,,,,,,,,,,,,,,,,,,3,4,2021-01-11_12h39.10.663,CL_C2S3,2020.1.3,Win32,60,,,,,u,1,0.66774,2,media/dknb.png,1,"[1,-1,-1]",2,0,Symb,u,RT,0,0,88,2,1,99,99,u,0.66774,1,4,88,0,88,0,1,,,,,,,
,,,,,,,,,,,,,,,,,,,,3,4,2021-01-11_12h39.10.663,CL_C2S3,2020.1.3,Win32,60,,,,,h,1,0.534275,0,media/dcnb.png,1,"[1,-1,-1]",0,0,Symb,h,RT,0,0,89,2,1,99,99,h,0.534275,1,4,89,0,89,0,1,,,,,,,
,,,,,,,,,,,,,,,,,,,,3,4,2021-01-11_12h39.10.663,CL_C2S3,2020.1.3,Win32,60,,,,,u,1,0.767615,2,media/dknb.png,1,"[1,-1,-1]",2,0,Symb,u,RT,0,0,90,2,1,99,99,u,0.767615,1,4,90,0,90,0,1,,,,,,,
,,,,,,,,,,,,,,,,,,,,3,4,2021-01-11_12h39.10.663,CL_C2S3,2020.1.3,Win32,60,,,,,h,1,0.934255,0,media/dcnb.png,1,"[1,-1,-1]",0,0,Symb,h,RT,0,0,91,2,1,99,99,h,0.934255,1,4,91,0,91,0,1,,,,,,,
,,,,,,,,,,,,,,,,,,,,3,4,2021-01-11_12h39.10.663,CL_C2S3,2020.1.3,Win32,60,,,,,i,1,0.59124,1,media/dfnb.png,1,"[1,-1,-1]",1,1,Symb,i,RT,0,0,92,2,1,99,99,i,0.59124,1,4,92,0,92,0,1,,,,,,,
,,,,,,,,,,,,,,,,,,,,3,4,2021-01-11_12h39.10.663,CL_C2S3,2020.1.3,Win32,60,,,,,h,1,0.51763,0,media/dcnb.png,1,"[1,-1,-1]",0,0,Symb,h,RT,0,0,93,2,1,99,99,h,0.51763,1,4,93,0,93,0,1,,,,,,,
,,,,,,,,,,,,,,,,,,,,3,4,2021-01-11_12h39.10.663,CL_C2S3,2020.1.3,Win32,60,,,,,i,1,0.63453,2,media/dknb.png,2,"[-1,1,-1]",5,0,Symb,i,RT,0,0,94,2,1,99,99,i,0.63453,1,4,94,0,94,0,1,,,,,,,
,,,,,,,,,,,,,,,,,,,,3,4,2021-01-11_12h39.10.663,CL_C2S3,2020.1.3,Win32,60,,,,,i,0,0.434705,0,media/dcnb.png,2,"[-1,1,-1]",3,0,Symb,h,RT,0,0,95,2,1,99,99,i,0.434705,0,4,95,0,95,0,1,,,,,,,
,,,,,,,,,,,,,,,,,,,,3,4,2021-01-11_12h39.10.663,CL_C2S3,2020.1.3,Win32,60,,,,,h,1,0.58445,0,media/dcnb.png,2,"[-1,1,-1]",3,0,Symb,h,RT,0,0,96,2,1,99,99,h,0.58445,1,4,96,0,96,0,1,,,,,,,
,,,,,,,,,,,,,,,,,,,,3,4,2021-01-11_12h39.10.663,CL_C2S3,2020.1.3,Win32,60,,,,,i,1,0.61791,1,media/dfnb.png,1,"[1,-1,-1]",1,1,Symb,i,RT,0,0,97,2,1,99,99,i,0.61791,1,4,97,0,97,0,1,,,,,,,
,,,,,,,,,,,,,,,,,,,,3,4,2021-01-11_12h39.10.663,CL_C2S3,2020.1.3,Win32,60,,,,,u,1,0.60099,1,media/dfnb.png,2,"[-1,1,-1]",4,1,Symb,u,RT,0,0,98,2,1,99,99,u,0.60099,1,4,98,0,98,0,1,,,,,,,
,,,,,,,,,,,,,,,,,,,,3,4,2021-01-11_12h39.10.663,CL_C2S3,2020.1.3,Win32,60,,,,,i,1,0.567695,2,media/dknb.png,2,"[-1,1,-1]",5,0,Symb,i,RT,0,0,99,2,1,99,99,i,0.567695,1,4,99,0,99,0,1,,,,,,,
,,,,,,,,,,,,,,,,,,,,3,4,2021-01-11_12h39.10.663,CL_C2S3,2020.1.3,Win32,60,,,,,u,1,0.517755,2,media/dknb.png,1,"[1,-1,-1]",2,0,Symb,u,RT,0,0,100,2,1,99,99,u,0.517755,1,4,100,0,100,0,1,,,,,,,
,,,,,,,,,,,,,,,,,,,,3,4,2021-01-11_12h39.10.663,CL_C2S3,2020.1.3,Win32,60,,,,,u,1,0.654785,1,media/dfnb.png,2,"[-1,1,-1]",4,1,Symb,u,RT,0,0,101,2,1,99,99,u,0.654785,1,4,101,0,101,0,1,,,,,,,
,,,,,,,,,,,,,,,,,,,,3,4,2021-01-11_12h39.10.663,CL_C2S3,2020.1.3,Win32,60,,,,,u,1,0.454455,1,media/dfnb.png,2,"[-1,1,-1]",4,1,Symb,u,RT,0,0,102,2,1,99,99,u,0.454455,1,4,102,0,102,0,1,,,,,,,
,,,,,,,,,,,,,,,,,,,,3,4,2021-01-11_12h39.10.663,CL_C2S3,2020.1.3,Win32,60,,,,,h,1,0.47245,0,media/dcnb.png,1,"[1,-1,-1]",0,0,Symb,h,RT,0,0,103,2,1,99,99,h,0.47245,1,4,103,0,103,0,1,,,,,,,
,,,,,,,,,,,,,,,,,,,,3,4,2021-01-11_12h39.10.663,CL_C2S3,2020.1.3,Win32,60,,,,,h,1,0.40263,0,media/dcnb.png,2,"[-1,1,-1]",3,0,Symb,h,RT,0,0,104,2,1,99,99,h,0.40263,1,4,104,0,104,0,1,,,,,,,
,,,,,,,,,,,,,,,,,,,,3,4,2021-01-11_12h39.10.663,CL_C2S3,2020.1.3,Win32,60,,,,,h,1,0.469485,0,media/dcnb.png,2,"[-1,1,-1]",3,0,Symb,h,RT,0,0,105,2,1,99,99,h,0.469485,1,4,105,0,105,0,1,,,,,,,
,,,,,,,,,,,,,,,,,,,,3,4,2021-01-11_12h39.10.663,CL_C2S3,2020.1.3,Win32,60,,,,,i,1,0.598725,2,media/dknb.png,2,"[-1,1,-1]",5,0,Symb,i,RT,0,0,106,2,1,99,99,i,0.598725,1,4,106,0,106,0,1,,,,,,,
,,,,,,,,,,,,,,,,,,,,3,4,2021-01-11_12h39.10.663,CL_C2S3,2020.1.3,Win32,60,,,,,u,1,0.46718,1,media/dfnb.png,2,"[-1,1,-1]",4,1,Symb,u,RT,0,0,107,2,1,99,99,u,0.46718,1,4,107,0,107,0,1,,,,,,,
,,,,,,,,,,,,,,,,,,,,3,4,2021-01-11_12h39.10.663,CL_C2S3,2020.1.3,Win32,60,,,,,i,1,0.567805,1,media/dfnb.png,1,"[1,-1,-1]",1,1,Symb,i,RT,0,0,108,2,1,99,99,i,0.567805,1,4,108,0,108,0,1,,,,,,,
,,,,,,,,,,,,,,,,,,,,3,4,2021-01-11_12h39.10.663,CL_C2S3,2020.1.3,Win32,60,,,,,i,1,0.5344,2,media/dknb.png,2,"[-1,1,-1]",5,0,Symb,i,RT,0,0,109,2,1,99,99,i,0.5344,1,4,109,0,109,0,1,,,,,,,
,,,,,,,,,,,,,,,,,,,,3,4,2021-01-11_12h39.10.663,CL_C2S3,2020.1.3,Win32,60,,,,,u,0,0.50362,1,media/dfnb.png,1,"[1,-1,-1]",1,1,Symb,i,RT,0,0,110,2,1,99,99,u,0.50362,0,4,110,0,110,0,1,,,,,,,
,,,,,,,,,,,,,,,,,,,,3,4,2021-01-11_12h39.10.663,CL_C2S3,2020.1.3,Win32,60,,,,,u,1,0.638685,2,media/dknb.png,1,"[1,-1,-1]",2,0,Symb,u,RT,0,0,111,2,1,99,99,u,0.638685,1,4,111,0,111,0,1,,,,,,,
,,,,,,,,,,,,,,,,,,,,3,4,2021-01-11_12h39.10.663,CL_C2S3,2020.1.3,Win32,60,,,,,h,1,0.4348,0,media/dcnb.png,1,"[1,-1,-1]",0,0,Symb,h,RT,0,0,112,2,1,99,99,h,0.4348,1,4,112,0,112,0,1,,,,,,,
,,,,,,,,,,,,,,,,,,,,3,4,2021-01-11_12h39.10.663,CL_C2S3,2020.1.3,Win32,60,,,,,u,1,0.667915,2,media/dknb.png,1,"[1,-1,-1]",2,0,Symb,u,RT,0,0,113,2,1,99,99,u,0.667915,1,4,113,0,113,0,1,,,,,,,
,,,,,,,,,,,,,,,,,,,,3,4,2021-01-11_12h39.10.663,CL_C2S3,2020.1.3,Win32,60,,,,,i,1,0.534335,2,media/dknb.png,2,"[-1,1,-1]",5,0,Symb,i,RT,0,0,114,2,1,99,99,i,0.534335,1,4,114,0,114,0,1,,,,,,,
,,,,,,,,,,,,,,,,,,,,3,4,2021-01-11_12h39.10.663,CL_C2S3,2020.1.3,Win32,60,,,,,u,1,0.633905,2,media/dknb.png,1,"[1,-1,-1]",2,0,Symb,u,RT,0,0,115,2,1,99,99,u,0.633905,1,4,115,0,115,0,1,,,,,,,
,,,,,,,,,,,,,,,,,,,,3,4,2021-01-11_12h39.10.663,CL_C2S3,2020.1.3,Win32,60,,,,,h,1,0.50251,0,media/dcnb.png,2,"[-1,1,-1]",3,0,Symb,h,RT,0,0,116,2,1,99,99,h,0.50251,1,4,116,0,116,0,1,,,,,,,
,,,,,,,,,,,,,,,,,,,,3,4,2021-01-11_12h39.10.663,CL_C2S3,2020.1.3,Win32,60,,,,,i,1,0.75153,1,media/dfnb.png,1,"[1,-1,-1]",1,1,Symb,i,RT,0,0,117,2,1,99,99,i,0.75153,1,4,117,0,117,0,1,,,,,,,
,,,,,,,,,,,,,,,,,,,,3,4,2021-01-11_12h39.10.663,CL_C2S3,2020.1.3,Win32,60,,,,,h,1,0.46761,0,media/dcnb.png,1,"[1,-1,-1]",0,0,Symb,h,RT,0,0,118,2,1,99,99,h,0.46761,1,4,118,0,118,0,1,,,,,,,
,,,,,,,,,,,,,,,,,,,,3,4,2021-01-11_12h39.10.663,CL_C2S3,2020.1.3,Win32,60,,,,,u,1,0.617605,1,media/dfnb.png,2,"[-1,1,-1]",4,1,Symb,u,RT,0,0,119,2,1,99,99,u,0.617605,1,4,119,0,119,0,1,,,,,,,
,,,,,,,,,,,,,,,,,,,,3,4,2021-01-11_12h39.10.663,CL_C2S3,2020.1.3,Win32,60,,,,,,,,,,,,,,,,,,,,,,,,,,,,,,,,,0,0,0,0,1,,
,,,,,,,,,,,,,,,,,,,,3,4,2021-01-11_12h39.10.663,CL_C2S3,2020.1.3,Win32,60,,,u,0.11775,h,1,0.63436,0,media/dcnb.png,2,"[-1,1,-1]",3,0,Symb,h,RT,0,0,0,2,2,99,99,h,0.63436,1,4,0,0,0,0,1,,,,,,,
,,,,,,,,,,,,,,,,,,,,3,4,2021-01-11_12h39.10.663,CL_C2S3,2020.1.3,Win32,60,,,,,i,1,0.567705,2,media/dknb.png,2,"[-1,1,-1]",5,0,Symb,i,RT,0,0,1,2,2,99,99,i,0.567705,1,4,1,0,1,0,1,,,,,,,
,,,,,,,,,,,,,,,,,,,,3,4,2021-01-11_12h39.10.663,CL_C2S3,2020.1.3,Win32,60,,,,,i,1,0.43437,2,media/dknb.png,2,"[-1,1,-1]",5,0,Symb,i,RT,0,0,2,2,2,99,99,i,0.43437,1,4,2,0,2,0,1,,,,,,,
,,,,,,,,,,,,,,,,,,,,3,4,2021-01-11_12h39.10.663,CL_C2S3,2020.1.3,Win32,60,,,,,i,1,0.86768,1,media/dfnb.png,1,"[1,-1,-1]",1,1,Symb,i,RT,0,0,3,2,2,99,99,i,0.86768,1,4,3,0,3,0,1,,,,,,,
,,,,,,,,,,,,,,,,,,,,3,4,2021-01-11_12h39.10.663,CL_C2S3,2020.1.3,Win32,60,,,,,u,1,0.60094,1,media/dfnb.png,2,"[-1,1,-1]",4,1,Symb,u,RT,0,0,4,2,2,99,99,u,0.60094,1,4,4,0,4,0,1,,,,,,,
,,,,,,,,,,,,,,,,,,,,3,4,2021-01-11_12h39.10.663,CL_C2S3,2020.1.3,Win32,60,,,,,i,1,0.601195,1,media/dfnb.png,1,"[1,-1,-1]",1,1,Symb,i,RT,0,0,5,2,2,99,99,i,0.601195,1,4,5,0,5,0,1,,,,,,,
,,,,,,,,,,,,,,,,,,,,3,4,2021-01-11_12h39.10.663,CL_C2S3,2020.1.3,Win32,60,,,,,u,1,0.638325,2,media/dknb.png,1,"[1,-1,-1]",2,0,Symb,u,RT,0,0,6,2,2,99,99,u,0.638325,1,4,6,0,6,0,1,,,,,,,
,,,,,,,,,,,,,,,,,,,,3,4,2021-01-11_12h39.10.663,CL_C2S3,2020.1.3,Win32,60,,,,,h,1,0.484495,0,media/dcnb.png,1,"[1,-1,-1]",0,0,Symb,h,RT,0,0,7,2,2,99,99,h,0.484495,1,4,7,0,7,0,1,,,,,,,
,,,,,,,,,,,,,,,,,,,,3,4,2021-01-11_12h39.10.663,CL_C2S3,2020.1.3,Win32,60,,,,,u,1,0.58554,1,media/dfnb.png,2,"[-1,1,-1]",4,1,Symb,u,RT,0,0,8,2,2,99,99,u,0.58554,1,4,8,0,8,0,1,,,,,,,
,,,,,,,,,,,,,,,,,,,,3,4,2021-01-11_12h39.10.663,CL_C2S3,2020.1.3,Win32,60,,,,,h,1,0.551005,0,media/dcnb.png,2,"[-1,1,-1]",3,0,Symb,h,RT,0,0,9,2,2,99,99,h,0.551005,1,4,9,0,9,0,1,,,,,,,
,,,,,,,,,,,,,,,,,,,,3,4,2021-01-11_12h39.10.663,CL_C2S3,2020.1.3,Win32,60,,,,,h,1,0.38397,0,media/dcnb.png,1,"[1,-1,-1]",0,0,Symb,h,RT,0,0,10,2,2,99,99,h,0.38397,1,4,10,0,10,0,1,,,,,,,
,,,,,,,,,,,,,,,,,,,,3,4,2021-01-11_12h39.10.663,CL_C2S3,2020.1.3,Win32,60,,,,,u,1,0.584315,2,media/dknb.png,1,"[1,-1,-1]",2,0,Symb,u,RT,0,0,11,2,2,99,99,u,0.584315,1,4,11,0,11,0,1,,,,,,,
,,,,,,,,,,,,,,,,,,,,3,4,2021-01-11_12h39.10.663,CL_C2S3,2020.1.3,Win32,60,,,,,u,1,0.884325,1,media/dfnb.png,2,"[-1,1,-1]",4,1,Symb,u,RT,0,0,12,2,2,99,99,u,0.884325,1,4,12,0,12,0,1,,,,,,,
,,,,,,,,,,,,,,,,,,,,3,4,2021-01-11_12h39.10.663,CL_C2S3,2020.1.3,Win32,60,,,,,i,1,0.600995,2,media/dknb.png,2,"[-1,1,-1]",5,0,Symb,i,RT,0,0,13,2,2,99,99,i,0.600995,1,4,13,0,13,0,1,,,,,,,
,,,,,,,,,,,,,,,,,,,,3,4,2021-01-11_12h39.10.663,CL_C2S3,2020.1.3,Win32,60,,,,,u,1,1.00135,1,media/dfnb.png,2,"[-1,1,-1]",4,1,Symb,u,RT,0,0,14,2,2,99,99,u,1.00135,1,4,14,0,14,0,1,,,,,,,
,,,,,,,,,,,,,,,,,,,,3,4,2021-01-11_12h39.10.663,CL_C2S3,2020.1.3,Win32,60,,,,,h,1,0.5017,0,media/dcnb.png,2,"[-1,1,-1]",3,0,Symb,h,RT,0,0,15,2,2,99,99,h,0.5017,1,4,15,0,15,0,1,,,,,,,
,,,,,,,,,,,,,,,,,,,,3,4,2021-01-11_12h39.10.663,CL_C2S3,2020.1.3,Win32,60,,,,,i,1,1.334265,1,media/dfnb.png,1,"[1,-1,-1]",1,1,Symb,i,RT,0,0,16,2,2,99,99,i,1.334265,1,4,16,0,16,0,1,,,,,,,
,,,,,,,,,,,,,,,,,,,,3,4,2021-01-11_12h39.10.663,CL_C2S3,2020.1.3,Win32,60,,,,,u,1,0.61673,2,media/dknb.png,1,"[1,-1,-1]",2,0,Symb,u,RT,0,0,17,2,2,99,99,u,0.61673,1,4,17,0,17,0,1,,,,,,,
,,,,,,,,,,,,,,,,,,,,3,4,2021-01-11_12h39.10.663,CL_C2S3,2020.1.3,Win32,60,,,,,i,1,0.56778,2,media/dknb.png,2,"[-1,1,-1]",5,0,Symb,i,RT,0,0,18,2,2,99,99,i,0.56778,1,4,18,0,18,0,1,,,,,,,
,,,,,,,,,,,,,,,,,,,,3,4,2021-01-11_12h39.10.663,CL_C2S3,2020.1.3,Win32,60,,,,,h,1,0.45114,0,media/dcnb.png,1,"[1,-1,-1]",0,0,Symb,h,RT,0,0,19,2,2,99,99,h,0.45114,1,4,19,0,19,0,1,,,,,,,
,,,,,,,,,,,,,,,,,,,,3,4,2021-01-11_12h39.10.663,CL_C2S3,2020.1.3,Win32,60,,,,,h,1,0.367845,0,media/dcnb.png,2,"[-1,1,-1]",3,0,Symb,h,RT,0,0,20,2,2,99,99,h,0.367845,1,4,20,0,20,0,1,,,,,,,
,,,,,,,,,,,,,,,,,,,,3,4,2021-01-11_12h39.10.663,CL_C2S3,2020.1.3,Win32,60,,,,,u,1,0.53439,2,media/dknb.png,1,"[1,-1,-1]",2,0,Symb,u,RT,0,0,21,2,2,99,99,u,0.53439,1,4,21,0,21,0,1,,,,,,,
,,,,,,,,,,,,,,,,,,,,3,4,2021-01-11_12h39.10.663,CL_C2S3,2020.1.3,Win32,60,,,,,h,1,0.43471,0,media/dcnb.png,1,"[1,-1,-1]",0,0,Symb,h,RT,0,0,22,2,2,99,99,h,0.43471,1,4,22,0,22,0,1,,,,,,,
,,,,,,,,,,,,,,,,,,,,3,4,2021-01-11_12h39.10.663,CL_C2S3,2020.1.3,Win32,60,,,,,i,1,0.68356,1,media/dfnb.png,1,"[1,-1,-1]",1,1,Symb,i,RT,0,0,23,2,2,99,99,i,0.68356,1,4,23,0,23,0,1,,,,,,,
,,,,,,,,,,,,,,,,,,,,3,4,2021-01-11_12h39.10.663,CL_C2S3,2020.1.3,Win32,60,,,,,i,1,0.751175,1,media/dfnb.png,1,"[1,-1,-1]",1,1,Symb,i,RT,0,0,24,2,2,99,99,i,0.751175,1,4,24,0,24,0,1,,,,,,,
,,,,,,,,,,,,,,,,,,,,3,4,2021-01-11_12h39.10.663,CL_C2S3,2020.1.3,Win32,60,,,,,i,1,0.934415,2,media/dknb.png,2,"[-1,1,-1]",5,0,Symb,i,RT,0,0,25,2,2,99,99,i,0.934415,1,4,25,0,25,0,1,,,,,,,
,,,,,,,,,,,,,,,,,,,,3,4,2021-01-11_12h39.10.663,CL_C2S3,2020.1.3,Win32,60,,,,,h,1,0.51789,0,media/dcnb.png,1,"[1,-1,-1]",0,0,Symb,h,RT,0,0,26,2,2,99,99,h,0.51789,1,4,26,0,26,0,1,,,,,,,
,,,,,,,,,,,,,,,,,,,,3,4,2021-01-11_12h39.10.663,CL_C2S3,2020.1.3,Win32,60,,,,,u,1,0.618035,1,media/dfnb.png,2,"[-1,1,-1]",4,1,Symb,u,RT,0,0,27,2,2,99,99,u,0.618035,1,4,27,0,27,0,1,,,,,,,
,,,,,,,,,,,,,,,,,,,,3,4,2021-01-11_12h39.10.663,CL_C2S3,2020.1.3,Win32,60,,,,,h,1,0.551555,0,media/dcnb.png,2,"[-1,1,-1]",3,0,Symb,h,RT,0,0,28,2,2,99,99,h,0.551555,1,4,28,0,28,0,1,,,,,,,
,,,,,,,,,,,,,,,,,,,,3,4,2021-01-11_12h39.10.663,CL_C2S3,2020.1.3,Win32,60,,,,,u,1,1.06769,2,media/dknb.png,1,"[1,-1,-1]",2,0,Symb,u,RT,0,0,29,2,2,99,99,u,1.06769,1,4,29,0,29,0,1,,,,,,,
,,,,,,,,,,,,,,,,,,,,3,4,2021-01-11_12h39.10.663,CL_C2S3,2020.1.3,Win32,60,,,,,u,1,0.40111,2,media/dknb.png,1,"[1,-1,-1]",2,0,Symb,u,RT,0,0,30,2,2,99,99,u,0.40111,1,4,30,0,30,0,1,,,,,,,
,,,,,,,,,,,,,,,,,,,,3,4,2021-01-11_12h39.10.663,CL_C2S3,2020.1.3,Win32,60,,,,,i,1,0.517515,2,media/dknb.png,2,"[-1,1,-1]",5,0,Symb,i,RT,0,0,31,2,2,99,99,i,0.517515,1,4,31,0,31,0,1,,,,,,,
,,,,,,,,,,,,,,,,,,,,3,4,2021-01-11_12h39.10.663,CL_C2S3,2020.1.3,Win32,60,,,,,h,1,0.518865,0,media/dcnb.png,1,"[1,-1,-1]",0,0,Symb,h,RT,0,0,32,2,2,99,99,h,0.518865,1,4,32,0,32,0,1,,,,,,,
,,,,,,,,,,,,,,,,,,,,3,4,2021-01-11_12h39.10.663,CL_C2S3,2020.1.3,Win32,60,,,,,u,1,1.55095,2,media/dknb.png,1,"[1,-1,-1]",2,0,Symb,u,RT,0,0,33,2,2,99,99,u,1.55095,1,4,33,0,33,0,1,,,,,,,
,,,,,,,,,,,,,,,,,,,,3,4,2021-01-11_12h39.10.663,CL_C2S3,2020.1.3,Win32,60,,,,,u,1,0.684335,1,media/dfnb.png,2,"[-1,1,-1]",4,1,Symb,u,RT,0,0,34,2,2,99,99,u,0.684335,1,4,34,0,34,0,1,,,,,,,
,,,,,,,,,,,,,,,,,,,,3,4,2021-01-11_12h39.10.663,CL_C2S3,2020.1.3,Win32,60,,,,,h,1,0.44708,0,media/dcnb.png,2,"[-1,1,-1]",3,0,Symb,h,RT,0,0,35,2,2,99,99,h,0.44708,1,4,35,0,35,0,1,,,,,,,
,,,,,,,,,,,,,,,,,,,,3,4,2021-01-11_12h39.10.663,CL_C2S3,2020.1.3,Win32,60,,,,,i,1,0.517795,2,media/dknb.png,2,"[-1,1,-1]",5,0,Symb,i,RT,0,0,36,2,2,99,99,i,0.517795,1,4,36,0,36,0,1,,,,,,,
,,,,,,,,,,,,,,,,,,,,3,4,2021-01-11_12h39.10.663,CL_C2S3,2020.1.3,Win32,60,,,,,i,1,0.66778,1,media/dfnb.png,1,"[1,-1,-1]",1,1,Symb,i,RT,0,0,37,2,2,99,99,i,0.66778,1,4,37,0,37,0,1,,,,,,,
,,,,,,,,,,,,,,,,,,,,3,4,2021-01-11_12h39.10.663,CL_C2S3,2020.1.3,Win32,60,,,,,i,1,0.401145,1,media/dfnb.png,1,"[1,-1,-1]",1,1,Symb,i,RT,0,0,38,2,2,99,99,i,0.401145,1,4,38,0,38,0,1,,,,,,,
,,,,,,,,,,,,,,,,,,,,3,4,2021-01-11_12h39.10.663,CL_C2S3,2020.1.3,Win32,60,,,,,u,1,0.55122,1,media/dfnb.png,2,"[-1,1,-1]",4,1,Symb,u,RT,0,0,39,2,2,99,99,u,0.55122,1,4,39,0,39,0,1,,,,,,,
,,,,,,,,,,,,,,,,,,,,3,4,2021-01-11_12h39.10.663,CL_C2S3,2020.1.3,Win32,60,,,,,h,1,0.618,0,media/dcnb.png,1,"[1,-1,-1]",0,0,Symb,h,RT,0,0,40,2,2,99,99,h,0.618,1,4,40,0,40,0,1,,,,,,,
,,,,,,,,,,,,,,,,,,,,3,4,2021-01-11_12h39.10.663,CL_C2S3,2020.1.3,Win32,60,,,,,h,1,0.401345,0,media/dcnb.png,2,"[-1,1,-1]",3,0,Symb,h,RT,0,0,41,2,2,99,99,h,0.401345,1,4,41,0,41,0,1,,,,,,,
,,,,,,,,,,,,,,,,,,,,3,4,2021-01-11_12h39.10.663,CL_C2S3,2020.1.3,Win32,60,,,,,u,1,0.60101,2,media/dknb.png,1,"[1,-1,-1]",2,0,Symb,u,RT,0,0,42,2,2,99,99,u,0.60101,1,4,42,0,42,0,1,,,,,,,
,,,,,,,,,,,,,,,,,,,,3,4,2021-01-11_12h39.10.663,CL_C2S3,2020.1.3,Win32,60,,,,,h,1,0.45071,0,media/dcnb.png,1,"[1,-1,-1]",0,0,Symb,h,RT,0,0,43,2,2,99,99,h,0.45071,1,4,43,0,43,0,1,,,,,,,
,,,,,,,,,,,,,,,,,,,,3,4,2021-01-11_12h39.10.663,CL_C2S3,2020.1.3,Win32,60,,,,,i,1,0.53429,2,media/dknb.png,2,"[-1,1,-1]",5,0,Symb,i,RT,0,0,44,2,2,99,99,i,0.53429,1,4,44,0,44,0,1,,,,,,,
,,,,,,,,,,,,,,,,,,,,3,4,2021-01-11_12h39.10.663,CL_C2S3,2020.1.3,Win32,60,,,,,i,0,0.534715,0,media/dcnb.png,2,"[-1,1,-1]",3,0,Symb,h,RT,0,0,45,2,2,99,99,i,0.534715,0,4,45,0,45,0,1,,,,,,,
,,,,,,,,,,,,,,,,,,,,3,4,2021-01-11_12h39.10.663,CL_C2S3,2020.1.3,Win32,60,,,,,u,1,0.834285,2,media/dknb.png,1,"[1,-1,-1]",2,0,Symb,u,RT,0,0,46,2,2,99,99,u,0.834285,1,4,46,0,46,0,1,,,,,,,
,,,,,,,,,,,,,,,,,,,,3,4,2021-01-11_12h39.10.663,CL_C2S3,2020.1.3,Win32,60,,,,,h,1,0.484225,0,media/dcnb.png,2,"[-1,1,-1]",3,0,Symb,h,RT,0,0,47,2,2,99,99,h,0.484225,1,4,47,0,47,0,1,,,,,,,
,,,,,,,,,,,,,,,,,,,,3,4,2021-01-11_12h39.10.663,CL_C2S3,2020.1.3,Win32,60,,,,,i,1,0.62347,2,media/dknb.png,2,"[-1,1,-1]",5,0,Symb,i,RT,0,0,48,2,2,99,99,i,0.62347,1,4,48,0,48,0,1,,,,,,,
,,,,,,,,,,,,,,,,,,,,3,4,2021-01-11_12h39.10.663,CL_C2S3,2020.1.3,Win32,60,,,,,h,1,0.70449,0,media/dcnb.png,1,"[1,-1,-1]",0,0,Symb,h,RT,0,0,49,2,2,99,99,h,0.70449,1,4,49,0,49,0,1,,,,,,,
,,,,,,,,,,,,,,,,,,,,3,4,2021-01-11_12h39.10.663,CL_C2S3,2020.1.3,Win32,60,,,,,u,1,0.602895,1,media/dfnb.png,2,"[-1,1,-1]",4,1,Symb,u,RT,0,0,50,2,2,99,99,u,0.602895,1,4,50,0,50,0,1,,,,,,,
,,,,,,,,,,,,,,,,,,,,3,4,2021-01-11_12h39.10.663,CL_C2S3,2020.1.3,Win32,60,,,,,i,1,0.637685,1,media/dfnb.png,1,"[1,-1,-1]",1,1,Symb,i,RT,0,0,51,2,2,99,99,i,0.637685,1,4,51,0,51,0,1,,,,,,,
,,,,,,,,,,,,,,,,,,,,3,4,2021-01-11_12h39.10.663,CL_C2S3,2020.1.3,Win32,60,,,,,i,1,0.938845,1,media/dfnb.png,1,"[1,-1,-1]",1,1,Symb,i,RT,0,0,52,2,2,99,99,i,0.938845,1,4,52,0,52,0,1,,,,,,,
,,,,,,,,,,,,,,,,,,,,3,4,2021-01-11_12h39.10.663,CL_C2S3,2020.1.3,Win32,60,,,,,u,1,0.54661,1,media/dfnb.png,2,"[-1,1,-1]",4,1,Symb,u,RT,0,0,53,2,2,99,99,u,0.54661,1,4,53,0,53,0,1,,,,,,,
,,,,,,,,,,,,,,,,,,,,3,4,2021-01-11_12h39.10.663,CL_C2S3,2020.1.3,Win32,60,,,,,i,1,0.567975,1,media/dfnb.png,1,"[1,-1,-1]",1,1,Symb,i,RT,0,0,54,2,2,99,99,i,0.567975,1,4,54,0,54,0,1,,,,,,,
,,,,,,,,,,,,,,,,,,,,3,4,2021-01-11_12h39.10.663,CL_C2S3,2020.1.3,Win32,60,,,,,u,1,0.585755,2,media/dknb.png,1,"[1,-1,-1]",2,0,Symb,u,RT,0,0,55,2,2,99,99,u,0.585755,1,4,55,0,55,0,1,,,,,,,
,,,,,,,,,,,,,,,,,,,,3,4,2021-01-11_12h39.10.663,CL_C2S3,2020.1.3,Win32,60,,,,,i,1,0.5509,2,media/dknb.png,2,"[-1,1,-1]",5,0,Symb,i,RT,0,0,56,2,2,99,99,i,0.5509,1,4,56,0,56,0,1,,,,,,,
,,,,,,,,,,,,,,,,,,,,3,4,2021-01-11_12h39.10.663,CL_C2S3,2020.1.3,Win32,60,,,,,u,1,0.750675,1,media/dfnb.png,2,"[-1,1,-1]",4,1,Symb,u,RT,0,0,57,2,2,99,99,u,0.750675,1,4,57,0,57,0,1,,,,,,,
,,,,,,,,,,,,,,,,,,,,3,4,2021-01-11_12h39.10.663,CL_C2S3,2020.1.3,Win32,60,,,,,h,1,0.41781,0,media/dcnb.png,2,"[-1,1,-1]",3,0,Symb,h,RT,0,0,58,2,2,99,99,h,0.41781,1,4,58,0,58,0,1,,,,,,,
,,,,,,,,,,,,,,,,,,,,3,4,2021-01-11_12h39.10.663,CL_C2S3,2020.1.3,Win32,60,,,,,h,1,0.41761,0,media/dcnb.png,1,"[1,-1,-1]",0,0,Symb,h,RT,0,0,59,2,2,99,99,h,0.41761,1,4,59,0,59,0,1,,,,,,,
,,,,,,,,,,,,,,,,,,,,3,4,2021-01-11_12h39.10.663,CL_C2S3,2020.1.3,Win32,60,,,,,h,1,0.46777,0,media/dcnb.png,2,"[-1,1,-1]",3,0,Symb,h,RT,0,0,60,2,2,99,99,h,0.46777,1,4,60,0,60,0,1,,,,,,,
,,,,,,,,,,,,,,,,,,,,3,4,2021-01-11_12h39.10.663,CL_C2S3,2020.1.3,Win32,60,,,,,u,0,0.687185,1,media/dfnb.png,1,"[1,-1,-1]",1,1,Symb,i,RT,0,0,61,2,2,99,99,u,0.687185,0,4,61,0,61,0,1,,,,,,,
,,,,,,,,,,,,,,,,,,,,3,4,2021-01-11_12h39.10.663,CL_C2S3,2020.1.3,Win32,60,,,,,i,1,0.6011,2,media/dknb.png,2,"[-1,1,-1]",5,0,Symb,i,RT,0,0,62,2,2,99,99,i,0.6011,1,4,62,0,62,0,1,,,,,,,
,,,,,,,,,,,,,,,,,,,,3,4,2021-01-11_12h39.10.663,CL_C2S3,2020.1.3,Win32,60,,,,,i,1,0.66731,1,media/dfnb.png,1,"[1,-1,-1]",1,1,Symb,i,RT,0,0,63,2,2,99,99,i,0.66731,1,4,63,0,63,0,1,,,,,,,
,,,,,,,,,,,,,,,,,,,,3,4,2021-01-11_12h39.10.663,CL_C2S3,2020.1.3,Win32,60,,,,,u,1,0.567725,1,media/dfnb.png,2,"[-1,1,-1]",4,1,Symb,u,RT,0,0,64,2,2,99,99,u,0.567725,1,4,64,0,64,0,1,,,,,,,
,,,,,,,,,,,,,,,,,,,,3,4,2021-01-11_12h39.10.663,CL_C2S3,2020.1.3,Win32,60,,,,,u,1,0.554875,2,media/dknb.png,1,"[1,-1,-1]",2,0,Symb,u,RT,0,0,65,2,2,99,99,u,0.554875,1,4,65,0,65,0,1,,,,,,,
,,,,,,,,,,,,,,,,,,,,3,4,2021-01-11_12h39.10.663,CL_C2S3,2020.1.3,Win32,60,,,,,h,1,0.701185,0,media/dcnb.png,1,"[1,-1,-1]",0,0,Symb,h,RT,0,0,66,2,2,99,99,h,0.701185,1,4,66,0,66,0,1,,,,,,,
,,,,,,,,,,,,,,,,,,,,3,4,2021-01-11_12h39.10.663,CL_C2S3,2020.1.3,Win32,60,,,,,u,1,0.55104,1,media/dfnb.png,2,"[-1,1,-1]",4,1,Symb,u,RT,0,0,67,2,2,99,99,u,0.55104,1,4,67,0,67,0,1,,,,,,,
,,,,,,,,,,,,,,,,,,,,3,4,2021-01-11_12h39.10.663,CL_C2S3,2020.1.3,Win32,60,,,,,i,1,0.500935,2,media/dknb.png,2,"[-1,1,-1]",5,0,Symb,i,RT,0,0,68,2,2,99,99,i,0.500935,1,4,68,0,68,0,1,,,,,,,
,,,,,,,,,,,,,,,,,,,,3,4,2021-01-11_12h39.10.663,CL_C2S3,2020.1.3,Win32,60,,,,,u,1,0.55093,2,media/dknb.png,1,"[1,-1,-1]",2,0,Symb,u,RT,0,0,69,2,2,99,99,u,0.55093,1,4,69,0,69,0,1,,,,,,,
,,,,,,,,,,,,,,,,,,,,3,4,2021-01-11_12h39.10.663,CL_C2S3,2020.1.3,Win32,60,,,,,h,1,0.80233,0,media/dcnb.png,2,"[-1,1,-1]",3,0,Symb,h,RT,0,0,70,2,2,99,99,h,0.80233,1,4,70,0,70,0,1,,,,,,,
,,,,,,,,,,,,,,,,,,,,3,4,2021-01-11_12h39.10.663,CL_C2S3,2020.1.3,Win32,60,,,,,h,1,0.36778,0,media/dcnb.png,1,"[1,-1,-1]",0,0,Symb,h,RT,0,0,71,2,2,99,99,h,0.36778,1,4,71,0,71,0,1,,,,,,,
,,,,,,,,,,,,,,,,,,,,3,4,2021-01-11_12h39.10.663,CL_C2S3,2020.1.3,Win32,60,,,,,i,1,0.61778,2,media/dknb.png,2,"[-1,1,-1]",5,0,Symb,i,RT,0,0,72,2,2,99,99,i,0.61778,1,4,72,0,72,0,1,,,,,,,
,,,,,,,,,,,,,,,,,,,,3,4,2021-01-11_12h39.10.663,CL_C2S3,2020.1.3,Win32,60,,,,,u,1,0.467745,1,media/dfnb.png,2,"[-1,1,-1]",4,1,Symb,u,RT,0,0,73,2,2,99,99,u,0.467745,1,4,73,0,73,0,1,,,,,,,
,,,,,,,,,,,,,,,,,,,,3,4,2021-01-11_12h39.10.663,CL_C2S3,2020.1.3,Win32,60,,,,,h,1,0.56769,0,media/dcnb.png,1,"[1,-1,-1]",0,0,Symb,h,RT,0,0,74,2,2,99,99,h,0.56769,1,4,74,0,74,0,1,,,,,,,
,,,,,,,,,,,,,,,,,,,,3,4,2021-01-11_12h39.10.663,CL_C2S3,2020.1.3,Win32,60,,,,,u,1,0.550045,2,media/dknb.png,1,"[1,-1,-1]",2,0,Symb,u,RT,0,0,75,2,2,99,99,u,0.550045,1,4,75,0,75,0,1,,,,,,,
,,,,,,,,,,,,,,,,,,,,3,4,2021-01-11_12h39.10.663,CL_C2S3,2020.1.3,Win32,60,,,,,i,1,0.7339,1,media/dfnb.png,1,"[1,-1,-1]",1,1,Symb,i,RT,0,0,76,2,2,99,99,i,0.7339,1,4,76,0,76,0,1,,,,,,,
,,,,,,,,,,,,,,,,,,,,3,4,2021-01-11_12h39.10.663,CL_C2S3,2020.1.3,Win32,60,,,,,h,1,0.534405,0,media/dcnb.png,1,"[1,-1,-1]",0,0,Symb,h,RT,0,0,77,2,2,99,99,h,0.534405,1,4,77,0,77,0,1,,,,,,,
,,,,,,,,,,,,,,,,,,,,3,4,2021-01-11_12h39.10.663,CL_C2S3,2020.1.3,Win32,60,,,,,i,1,0.584305,2,media/dknb.png,2,"[-1,1,-1]",5,0,Symb,i,RT,0,0,78,2,2,99,99,i,0.584305,1,4,78,0,78,0,1,,,,,,,
,,,,,,,,,,,,,,,,,,,,3,4,2021-01-11_12h39.10.663,CL_C2S3,2020.1.3,Win32,60,,,,,u,1,0.51741,1,media/dfnb.png,2,"[-1,1,-1]",4,1,Symb,u,RT,0,0,79,2,2,99,99,u,0.51741,1,4,79,0,79,0,1,,,,,,,
,,,,,,,,,,,,,,,,,,,,3,4,2021-01-11_12h39.10.663,CL_C2S3,2020.1.3,Win32,60,,,,,h,1,0.435935,0,media/dcnb.png,2,"[-1,1,-1]",3,0,Symb,h,RT,0,0,80,2,2,99,99,h,0.435935,1,4,80,0,80,0,1,,,,,,,
,,,,,,,,,,,,,,,,,,,,3,4,2021-01-11_12h39.10.663,CL_C2S3,2020.1.3,Win32,60,,,,,i,1,0.58436,1,media/dfnb.png,1,"[1,-1,-1]",1,1,Symb,i,RT,0,0,81,2,2,99,99,i,0.58436,1,4,81,0,81,0,1,,,,,,,
,,,,,,,,,,,,,,,,,,,,3,4,2021-01-11_12h39.10.663,CL_C2S3,2020.1.3,Win32,60,,,,,u,1,0.6024,2,media/dknb.png,1,"[1,-1,-1]",2,0,Symb,u,RT,0,0,82,2,2,99,99,u,0.6024,1,4,82,0,82,0,1,,,,,,,
,,,,,,,,,,,,,,,,,,,,3,4,2021-01-11_12h39.10.663,CL_C2S3,2020.1.3,Win32,60,,,,,h,1,0.41774,0,media/dcnb.png,2,"[-1,1,-1]",3,0,Symb,h,RT,0,0,83,2,2,99,99,h,0.41774,1,4,83,0,83,0,1,,,,,,,
,,,,,,,,,,,,,,,,,,,,3,4,2021-01-11_12h39.10.663,CL_C2S3,2020.1.3,Win32,60,,,,,i,1,1.984345,1,media/dfnb.png,1,"[1,-1,-1]",1,1,Symb,i,RT,0,0,84,2,2,99,99,i,1.984345,1,4,84,0,84,0,1,,,,,,,
,,,,,,,,,,,,,,,,,,,,3,4,2021-01-11_12h39.10.663,CL_C2S3,2020.1.3,Win32,60,,,,,h,1,0.52062,0,media/dcnb.png,1,"[1,-1,-1]",0,0,Symb,h,RT,0,0,85,2,2,99,99,h,0.52062,1,4,85,0,85,0,1,,,,,,,
,,,,,,,,,,,,,,,,,,,,3,4,2021-01-11_12h39.10.663,CL_C2S3,2020.1.3,Win32,60,,,,,u,1,1.0225,2,media/dknb.png,1,"[1,-1,-1]",2,0,Symb,u,RT,0,0,86,2,2,99,99,u,1.0225,1,4,86,0,86,0,1,,,,,,,
,,,,,,,,,,,,,,,,,,,,3,4,2021-01-11_12h39.10.663,CL_C2S3,2020.1.3,Win32,60,,,,,u,1,0.652615,1,media/dfnb.png,2,"[-1,1,-1]",4,1,Symb,u,RT,0,0,87,2,2,99,99,u,0.652615,1,4,87,0,87,0,1,,,,,,,
,,,,,,,,,,,,,,,,,,,,3,4,2021-01-11_12h39.10.663,CL_C2S3,2020.1.3,Win32,60,,,,,h,1,0.48831,0,media/dcnb.png,2,"[-1,1,-1]",3,0,Symb,h,RT,0,0,88,2,2,99,99,h,0.48831,1,4,88,0,88,0,1,,,,,,,
,,,,,,,,,,,,,,,,,,,,3,4,2021-01-11_12h39.10.663,CL_C2S3,2020.1.3,Win32,60,,,,,i,1,0.900545,2,media/dknb.png,2,"[-1,1,-1]",5,0,Symb,i,RT,0,0,89,2,2,99,99,i,0.900545,1,4,89,0,89,0,1,,,,,,,
,,,,,,,,,,,,,,,,,,,,3,4,2021-01-11_12h39.10.663,CL_C2S3,2020.1.3,Win32,60,,,,,i,1,0.45224,2,media/dknb.png,2,"[-1,1,-1]",5,0,Symb,i,RT,0,0,90,2,2,99,99,i,0.45224,1,4,90,0,90,0,1,,,,,,,
,,,,,,,,,,,,,,,,,,,,3,4,2021-01-11_12h39.10.663,CL_C2S3,2020.1.3,Win32,60,,,,,h,1,0.519655,0,media/dcnb.png,2,"[-1,1,-1]",3,0,Symb,h,RT,0,0,91,2,2,99,99,h,0.519655,1,4,91,0,91,0,1,,,,,,,
,,,,,,,,,,,,,,,,,,,,3,4,2021-01-11_12h39.10.663,CL_C2S3,2020.1.3,Win32,60,,,,,u,1,0.852395,1,media/dfnb.png,2,"[-1,1,-1]",4,1,Symb,u,RT,0,0,92,2,2,99,99,u,0.852395,1,4,92,0,92,0,1,,,,,,,
,,,,,,,,,,,,,,,,,,,,3,4,2021-01-11_12h39.10.663,CL_C2S3,2020.1.3,Win32,60,,,,,i,1,0.57136,1,media/dfnb.png,1,"[1,-1,-1]",1,1,Symb,i,RT,0,0,93,2,2,99,99,i,0.57136,1,4,93,0,93,0,1,,,,,,,
,,,,,,,,,,,,,,,,,,,,3,4,2021-01-11_12h39.10.663,CL_C2S3,2020.1.3,Win32,60,,,,,h,1,0.53354,0,media/dcnb.png,1,"[1,-1,-1]",0,0,Symb,h,RT,0,0,94,2,2,99,99,h,0.53354,1,4,94,0,94,0,1,,,,,,,
,,,,,,,,,,,,,,,,,,,,3,4,2021-01-11_12h39.10.663,CL_C2S3,2020.1.3,Win32,60,,,,,h,1,0.418275,0,media/dcnb.png,2,"[-1,1,-1]",3,0,Symb,h,RT,0,0,95,2,2,99,99,h,0.418275,1,4,95,0,95,0,1,,,,,,,
,,,,,,,,,,,,,,,,,,,,3,4,2021-01-11_12h39.10.663,CL_C2S3,2020.1.3,Win32,60,,,,,i,1,0.96871,1,media/dfnb.png,1,"[1,-1,-1]",1,1,Symb,i,RT,0,0,96,2,2,99,99,i,0.96871,1,4,96,0,96,0,1,,,,,,,
,,,,,,,,,,,,,,,,,,,,3,4,2021-01-11_12h39.10.663,CL_C2S3,2020.1.3,Win32,60,,,,,u,1,0.784245,2,media/dknb.png,1,"[1,-1,-1]",2,0,Symb,u,RT,0,0,97,2,2,99,99,u,0.784245,1,4,97,0,97,0,1,,,,,,,
,,,,,,,,,,,,,,,,,,,,3,4,2021-01-11_12h39.10.663,CL_C2S3,2020.1.3,Win32,60,,,,,u,1,0.40112,2,media/dknb.png,1,"[1,-1,-1]",2,0,Symb,u,RT,0,0,98,2,2,99,99,u,0.40112,1,4,98,0,98,0,1,,,,,,,
,,,,,,,,,,,,,,,,,,,,3,4,2021-01-11_12h39.10.663,CL_C2S3,2020.1.3,Win32,60,,,,,u,1,1.08656,1,media/dfnb.png,2,"[-1,1,-1]",4,1,Symb,u,RT,0,0,99,2,2,99,99,u,1.08656,1,4,99,0,99,0,1,,,,,,,
,,,,,,,,,,,,,,,,,,,,3,4,2021-01-11_12h39.10.663,CL_C2S3,2020.1.3,Win32,60,,,,,h,1,0.56764,0,media/dcnb.png,1,"[1,-1,-1]",0,0,Symb,h,RT,0,0,100,2,2,99,99,h,0.56764,1,4,100,0,100,0,1,,,,,,,
,,,,,,,,,,,,,,,,,,,,3,4,2021-01-11_12h39.10.663,CL_C2S3,2020.1.3,Win32,60,,,,,i,1,0.567805,2,media/dknb.png,2,"[-1,1,-1]",5,0,Symb,i,RT,0,0,101,2,2,99,99,i,0.567805,1,4,101,0,101,0,1,,,,,,,
,,,,,,,,,,,,,,,,,,,,3,4,2021-01-11_12h39.10.663,CL_C2S3,2020.1.3,Win32,60,,,,,i,1,0.417295,2,media/dknb.png,2,"[-1,1,-1]",5,0,Symb,i,RT,0,0,102,2,2,99,99,i,0.417295,1,4,102,0,102,0,1,,,,,,,
,,,,,,,,,,,,,,,,,,,,3,4,2021-01-11_12h39.10.663,CL_C2S3,2020.1.3,Win32,60,,,,,h,1,0.467095,0,media/dcnb.png,2,"[-1,1,-1]",3,0,Symb,h,RT,0,0,103,2,2,99,99,h,0.467095,1,4,103,0,103,0,1,,,,,,,
,,,,,,,,,,,,,,,,,,,,3,4,2021-01-11_12h39.10.663,CL_C2S3,2020.1.3,Win32,60,,,,,h,1,0.467775,0,media/dcnb.png,2,"[-1,1,-1]",3,0,Symb,h,RT,0,0,104,2,2,99,99,h,0.467775,1,4,104,0,104,0,1,,,,,,,
,,,,,,,,,,,,,,,,,,,,3,4,2021-01-11_12h39.10.663,CL_C2S3,2020.1.3,Win32,60,,,,,i,1,0.65101,1,media/dfnb.png,1,"[1,-1,-1]",1,1,Symb,i,RT,0,0,105,2,2,99,99,i,0.65101,1,4,105,0,105,0,1,,,,,,,
,,,,,,,,,,,,,,,,,,,,3,4,2021-01-11_12h39.10.663,CL_C2S3,2020.1.3,Win32,60,,,,,i,1,0.43429,1,media/dfnb.png,1,"[1,-1,-1]",1,1,Symb,i,RT,0,0,106,2,2,99,99,i,0.43429,1,4,106,0,106,0,1,,,,,,,
,,,,,,,,,,,,,,,,,,,,3,4,2021-01-11_12h39.10.663,CL_C2S3,2020.1.3,Win32,60,,,,,h,1,0.50387,0,media/dcnb.png,1,"[1,-1,-1]",0,0,Symb,h,RT,0,0,107,2,2,99,99,h,0.50387,1,4,107,0,107,0,1,,,,,,,
,,,,,,,,,,,,,,,,,,,,3,4,2021-01-11_12h39.10.663,CL_C2S3,2020.1.3,Win32,60,,,,,i,1,0.53435,2,media/dknb.png,2,"[-1,1,-1]",5,0,Symb,i,RT,0,0,108,2,2,99,99,i,0.53435,1,4,108,0,108,0,1,,,,,,,
,,,,,,,,,,,,,,,,,,,,3,4,2021-01-11_12h39.10.663,CL_C2S3,2020.1.3,Win32,60,,,,,h,1,0.88427,0,media/dcnb.png,1,"[1,-1,-1]",0,0,Symb,h,RT,0,0,109,2,2,99,99,h,0.88427,1,4,109,0,109,0,1,,,,,,,
,,,,,,,,,,,,,,,,,,,,3,4,2021-01-11_12h39.10.663,CL_C2S3,2020.1.3,Win32,60,,,,,u,1,0.635195,1,media/dfnb.png,2,"[-1,1,-1]",4,1,Symb,u,RT,0,0,110,2,2,99,99,u,0.635195,1,4,110,0,110,0,1,,,,,,,
,,,,,,,,,,,,,,,,,,,,3,4,2021-01-11_12h39.10.663,CL_C2S3,2020.1.3,Win32,60,,,,,u,1,0.434415,1,media/dfnb.png,2,"[-1,1,-1]",4,1,Symb,u,RT,0,0,111,2,2,99,99,u,0.434415,1,4,111,0,111,0,1,,,,,,,
,,,,,,,,,,,,,,,,,,,,3,4,2021-01-11_12h39.10.663,CL_C2S3,2020.1.3,Win32,60,,,,,u,1,0.620305,2,media/dknb.png,1,"[1,-1,-1]",2,0,Symb,u,RT,0,0,112,2,2,99,99,u,0.620305,1,4,112,0,112,0,1,,,,,,,
,,,,,,,,,,,,,,,,,,,,3,4,2021-01-11_12h39.10.663,CL_C2S3,2020.1.3,Win32,60,,,,,u,1,0.38448,2,media/dknb.png,1,"[1,-1,-1]",2,0,Symb,u,RT,0,0,113,2,2,99,99,u,0.38448,1,4,113,0,113,0,1,,,,,,,
,,,,,,,,,,,,,,,,,,,,3,4,2021-01-11_12h39.10.663,CL_C2S3,2020.1.3,Win32,60,,,,,h,1,0.484385,0,media/dcnb.png,1,"[1,-1,-1]",0,0,Symb,h,RT,0,0,114,2,2,99,99,h,0.484385,1,4,114,0,114,0,1,,,,,,,
,,,,,,,,,,,,,,,,,,,,3,4,2021-01-11_12h39.10.663,CL_C2S3,2020.1.3,Win32,60,,,,,i,1,0.483975,2,media/dknb.png,2,"[-1,1,-1]",5,0,Symb,i,RT,0,0,115,2,2,99,99,i,0.483975,1,4,115,0,115,0,1,,,,,,,
,,,,,,,,,,,,,,,,,,,,3,4,2021-01-11_12h39.10.663,CL_C2S3,2020.1.3,Win32,60,,,,,i,0,0.417455,0,media/dcnb.png,2,"[-1,1,-1]",3,0,Symb,h,RT,0,0,116,2,2,99,99,i,0.417455,0,4,116,0,116,0,1,,,,,,,
,,,,,,,,,,,,,,,,,,,,3,4,2021-01-11_12h39.10.663,CL_C2S3,2020.1.3,Win32,60,,,,,i,1,0.638895,1,media/dfnb.png,1,"[1,-1,-1]",1,1,Symb,i,RT,0,0,117,2,2,99,99,i,0.638895,1,4,117,0,117,0,1,,,,,,,
,,,,,,,,,,,,,,,,,,,,3,4,2021-01-11_12h39.10.663,CL_C2S3,2020.1.3,Win32,60,,,,,u,1,0.566665,2,media/dknb.png,1,"[1,-1,-1]",2,0,Symb,u,RT,0,0,118,2,2,99,99,u,0.566665,1,4,118,0,118,0,1,,,,,,,
,,,,,,,,,,,,,,,,,,,,3,4,2021-01-11_12h39.10.663,CL_C2S3,2020.1.3,Win32,60,,,,,u,1,0.88283,1,media/dfnb.png,2,"[-1,1,-1]",4,1,Symb,u,RT,0,0,119,2,2,99,99,u,0.88283,1,4,119,0,119,0,1,,,,,,,
,,,,,,,,,,,,,,,,,,,,3,4,2021-01-11_12h39.10.663,CL_C2S3,2020.1.3,Win32,60,,,,,,,,,,,,,,,,,,,,,,,,,,,,,,,,,1,0,1,0,1,,
,,,,,,,,,,,,,,,,,,,,3,4,2021-01-11_12h39.10.663,CL_C2S3,2020.1.3,Win32,60,,,u,0.186135,h,1,0.55017,0,media/dcnb.png,1,"[1,-1,-1]",0,0,Symb,h,RT,0,0,0,2,3,99,99,h,0.55017,1,4,0,0,0,0,1,,,,,,,
,,,,,,,,,,,,,,,,,,,,3,4,2021-01-11_12h39.10.663,CL_C2S3,2020.1.3,Win32,60,,,,,i,1,0.533985,2,media/dknb.png,2,"[-1,1,-1]",5,0,Symb,i,RT,0,0,1,2,3,99,99,i,0.533985,1,4,1,0,1,0,1,,,,,,,
,,,,,,,,,,,,,,,,,,,,3,4,2021-01-11_12h39.10.663,CL_C2S3,2020.1.3,Win32,60,,,,,h,1,0.518935,0,media/dcnb.png,2,"[-1,1,-1]",3,0,Symb,h,RT,0,0,2,2,3,99,99,h,0.518935,1,4,2,0,2,0,1,,,,,,,
,,,,,,,,,,,,,,,,,,,,3,4,2021-01-11_12h39.10.663,CL_C2S3,2020.1.3,Win32,60,,,,,h,1,0.400815,0,media/dcnb.png,2,"[-1,1,-1]",3,0,Symb,h,RT,0,0,3,2,3,99,99,h,0.400815,1,4,3,0,3,0,1,,,,,,,
,,,,,,,,,,,,,,,,,,,,3,4,2021-01-11_12h39.10.663,CL_C2S3,2020.1.3,Win32,60,,,,,i,1,0.453045,2,media/dknb.png,2,"[-1,1,-1]",5,0,Symb,i,RT,0,0,4,2,3,99,99,i,0.453045,1,4,4,0,4,0,1,,,,,,,
,,,,,,,,,,,,,,,,,,,,3,4,2021-01-11_12h39.10.663,CL_C2S3,2020.1.3,Win32,60,,,,,i,1,0.63479,1,media/dfnb.png,1,"[1,-1,-1]",1,1,Symb,i,RT,0,0,5,2,3,99,99,i,0.63479,1,4,5,0,5,0,1,,,,,,,
,,,,,,,,,,,,,,,,,,,,3,4,2021-01-11_12h39.10.663,CL_C2S3,2020.1.3,Win32,60,,,,,u,1,0.43445,1,media/dfnb.png,2,"[-1,1,-1]",4,1,Symb,u,RT,0,0,6,2,3,99,99,u,0.43445,1,4,6,0,6,0,1,,,,,,,
,,,,,,,,,,,,,,,,,,,,3,4,2021-01-11_12h39.10.663,CL_C2S3,2020.1.3,Win32,60,,,,,u,1,0.369225,1,media/dfnb.png,2,"[-1,1,-1]",4,1,Symb,u,RT,0,0,7,2,3,99,99,u,0.369225,1,4,7,0,7,0,1,,,,,,,
,,,,,,,,,,,,,,,,,,,,3,4,2021-01-11_12h39.10.663,CL_C2S3,2020.1.3,Win32,60,,,,,u,1,0.651045,2,media/dknb.png,1,"[1,-1,-1]",2,0,Symb,u,RT,0,0,8,2,3,99,99,u,0.651045,1,4,8,0,8,0,1,,,,,,,
,,,,,,,,,,,,,,,,,,,,3,4,2021-01-11_12h39.10.663,CL_C2S3,2020.1.3,Win32,60,,,,,h,1,0.534335,0,media/dcnb.png,1,"[1,-1,-1]",0,0,Symb,h,RT,0,0,9,2,3,99,99,h,0.534335,1,4,9,0,9,0,1,,,,,,,
,,,,,,,,,,,,,,,,,,,,3,4,2021-01-11_12h39.10.663,CL_C2S3,2020.1.3,Win32,60,,,,,u,1,1.034485,2,media/dknb.png,1,"[1,-1,-1]",2,0,Symb,u,RT,0,0,10,2,3,99,99,u,1.034485,1,4,10,0,10,0,1,,,,,,,
,,,,,,,,,,,,,,,,,,,,3,4,2021-01-11_12h39.10.663,CL_C2S3,2020.1.3,Win32,60,,,,,i,1,0.65008,1,media/dfnb.png,1,"[1,-1,-1]",1,1,Symb,i,RT,0,0,11,2,3,99,99,i,0.65008,1,4,11,0,11,0,1,,,,,,,
,,,,,,,,,,,,,,,,,,,,3,4,2021-01-11_12h39.10.663,CL_C2S3,2020.1.3,Win32,60,,,,,h,1,0.53446,0,media/dcnb.png,1,"[1,-1,-1]",0,0,Symb,h,RT,0,0,12,2,3,99,99,h,0.53446,1,4,12,0,12,0,1,,,,,,,
,,,,,,,,,,,,,,,,,,,,3,4,2021-01-11_12h39.10.663,CL_C2S3,2020.1.3,Win32,60,,,,,i,1,0.735655,1,media/dfnb.png,1,"[1,-1,-1]",1,1,Symb,i,RT,0,0,13,2,3,99,99,i,0.735655,1,4,13,0,13,0,1,,,,,,,
,,,,,,,,,,,,,,,,,,,,3,4,2021-01-11_12h39.10.663,CL_C2S3,2020.1.3,Win32,60,,,,,h,1,0.485395,0,media/dcnb.png,2,"[-1,1,-1]",3,0,Symb,h,RT,0,0,14,2,3,99,99,h,0.485395,1,4,14,0,14,0,1,,,,,,,
,,,,,,,,,,,,,,,,,,,,3,4,2021-01-11_12h39.10.663,CL_C2S3,2020.1.3,Win32,60,,,,,h,1,0.42099,0,media/dcnb.png,2,"[-1,1,-1]",3,0,Symb,h,RT,0,0,15,2,3,99,99,h,0.42099,1,4,15,0,15,0,1,,,,,,,
,,,,,,,,,,,,,,,,,,,,3,4,2021-01-11_12h39.10.663,CL_C2S3,2020.1.3,Win32,60,,,,,h,1,0.45106,0,media/dcnb.png,1,"[1,-1,-1]",0,0,Symb,h,RT,0,0,16,2,3,99,99,h,0.45106,1,4,16,0,16,0,1,,,,,,,
,,,,,,,,,,,,,,,,,,,,3,4,2021-01-11_12h39.10.663,CL_C2S3,2020.1.3,Win32,60,,,,,u,1,0.55135,1,media/dfnb.png,2,"[-1,1,-1]",4,1,Symb,u,RT,0,0,17,2,3,99,99,u,0.55135,1,4,17,0,17,0,1,,,,,,,
,,,,,,,,,,,,,,,,,,,,3,4,2021-01-11_12h39.10.663,CL_C2S3,2020.1.3,Win32,60,,,,,i,1,0.501005,2,media/dknb.png,2,"[-1,1,-1]",5,0,Symb,i,RT,0,0,18,2,3,99,99,i,0.501005,1,4,18,0,18,0,1,,,,,,,
,,,,,,,,,,,,,,,,,,,,3,4,2021-01-11_12h39.10.663,CL_C2S3,2020.1.3,Win32,60,,,,,u,1,0.61766,2,media/dknb.png,1,"[1,-1,-1]",2,0,Symb,u,RT,0,0,19,2,3,99,99,u,0.61766,1,4,19,0,19,0,1,,,,,,,
,,,,,,,,,,,,,,,,,,,,3,4,2021-01-11_12h39.10.663,CL_C2S3,2020.1.3,Win32,60,,,,,u,1,0.48481,1,media/dfnb.png,2,"[-1,1,-1]",4,1,Symb,u,RT,0,0,20,2,3,99,99,u,0.48481,1,4,20,0,20,0,1,,,,,,,
,,,,,,,,,,,,,,,,,,,,3,4,2021-01-11_12h39.10.663,CL_C2S3,2020.1.3,Win32,60,,,,,i,1,0.56781,1,media/dfnb.png,1,"[1,-1,-1]",1,1,Symb,i,RT,0,0,21,2,3,99,99,i,0.56781,1,4,21,0,21,0,1,,,,,,,
,,,,,,,,,,,,,,,,,,,,3,4,2021-01-11_12h39.10.663,CL_C2S3,2020.1.3,Win32,60,,,,,u,1,0.96417,2,media/dknb.png,1,"[1,-1,-1]",2,0,Symb,u,RT,0,0,22,2,3,99,99,u,0.96417,1,4,22,0,22,0,1,,,,,,,
,,,,,,,,,,,,,,,,,,,,3,4,2021-01-11_12h39.10.663,CL_C2S3,2020.1.3,Win32,60,,,,,i,1,0.65092,2,media/dknb.png,2,"[-1,1,-1]",5,0,Symb,i,RT,0,0,23,2,3,99,99,i,0.65092,1,4,23,0,23,0,1,,,,,,,
,,,,,,,,,,,,,,,,,,,,3,4,2021-01-11_12h39.10.663,CL_C2S3,2020.1.3,Win32,60,,,,,h,1,0.386665,0,media/dcnb.png,2,"[-1,1,-1]",3,0,Symb,h,RT,0,0,24,2,3,99,99,h,0.386665,1,4,24,0,24,0,1,,,,,,,
,,,,,,,,,,,,,,,,,,,,3,4,2021-01-11_12h39.10.663,CL_C2S3,2020.1.3,Win32,60,,,,,i,1,0.60014,2,media/dknb.png,2,"[-1,1,-1]",5,0,Symb,i,RT,0,0,25,2,3,99,99,i,0.60014,1,4,25,0,25,0,1,,,,,,,
,,,,,,,,,,,,,,,,,,,,3,4,2021-01-11_12h39.10.663,CL_C2S3,2020.1.3,Win32,60,,,,,u,1,0.51773,1,media/dfnb.png,2,"[-1,1,-1]",4,1,Symb,u,RT,0,0,26,2,3,99,99,u,0.51773,1,4,26,0,26,0,1,,,,,,,
,,,,,,,,,,,,,,,,,,,,3,4,2021-01-11_12h39.10.663,CL_C2S3,2020.1.3,Win32,60,,,,,h,1,0.48455,0,media/dcnb.png,1,"[1,-1,-1]",0,0,Symb,h,RT,0,0,27,2,3,99,99,h,0.48455,1,4,27,0,27,0,1,,,,,,,
,,,,,,,,,,,,,,,,,,,,3,4,2021-01-11_12h39.10.663,CL_C2S3,2020.1.3,Win32,60,,,,,u,1,0.534685,2,media/dknb.png,1,"[1,-1,-1]",2,0,Symb,u,RT,0,0,28,2,3,99,99,u,0.534685,1,4,28,0,28,0,1,,,,,,,
,,,,,,,,,,,,,,,,,,,,3,4,2021-01-11_12h39.10.663,CL_C2S3,2020.1.3,Win32,60,,,,,i,1,0.66745,1,media/dfnb.png,1,"[1,-1,-1]",1,1,Symb,i,RT,0,0,29,2,3,99,99,i,0.66745,1,4,29,0,29,0,1,,,,,,,
,,,,,,,,,,,,,,,,,,,,3,4,2021-01-11_12h39.10.663,CL_C2S3,2020.1.3,Win32,60,,,,,h,1,0.56806,0,media/dcnb.png,1,"[1,-1,-1]",0,0,Symb,h,RT,0,0,30,2,3,99,99,h,0.56806,1,4,30,0,30,0,1,,,,,,,
,,,,,,,,,,,,,,,,,,,,3,4,2021-01-11_12h39.10.663,CL_C2S3,2020.1.3,Win32,60,,,,,i,1,0.517715,2,media/dknb.png,2,"[-1,1,-1]",5,0,Symb,i,RT,0,0,31,2,3,99,99,i,0.517715,1,4,31,0,31,0,1,,,,,,,
,,,,,,,,,,,,,,,,,,,,3,4,2021-01-11_12h39.10.663,CL_C2S3,2020.1.3,Win32,60,,,,,u,1,0.55104,2,media/dknb.png,1,"[1,-1,-1]",2,0,Symb,u,RT,0,0,32,2,3,99,99,u,0.55104,1,4,32,0,32,0,1,,,,,,,
,,,,,,,,,,,,,,,,,,,,3,4,2021-01-11_12h39.10.663,CL_C2S3,2020.1.3,Win32,60,,,,,u,1,0.50173,2,media/dknb.png,1,"[1,-1,-1]",2,0,Symb,u,RT,0,0,33,2,3,99,99,u,0.50173,1,4,33,0,33,0,1,,,,,,,
,,,,,,,,,,,,,,,,,,,,3,4,2021-01-11_12h39.10.663,CL_C2S3,2020.1.3,Win32,60,,,,,h,1,0.38993,0,media/dcnb.png,1,"[1,-1,-1]",0,0,Symb,h,RT,0,0,34,2,3,99,99,h,0.38993,1,4,34,0,34,0,1,,,,,,,
,,,,,,,,,,,,,,,,,,,,3,4,2021-01-11_12h39.10.663,CL_C2S3,2020.1.3,Win32,60,,,,,i,1,0.651085,1,media/dfnb.png,1,"[1,-1,-1]",1,1,Symb,i,RT,0,0,35,2,3,99,99,i,0.651085,1,4,35,0,35,0,1,,,,,,,
,,,,,,,,,,,,,,,,,,,,3,4,2021-01-11_12h39.10.663,CL_C2S3,2020.1.3,Win32,60,,,,,h,1,0.55603,0,media/dcnb.png,2,"[-1,1,-1]",3,0,Symb,h,RT,0,0,36,2,3,99,99,h,0.55603,1,4,36,0,36,0,1,,,,,,,
,,,,,,,,,,,,,,,,,,,,3,4,2021-01-11_12h39.10.663,CL_C2S3,2020.1.3,Win32,60,,,,,u,1,1.185025,1,media/dfnb.png,2,"[-1,1,-1]",4,1,Symb,u,RT,0,0,37,2,3,99,99,u,1.185025,1,4,37,0,37,0,1,,,,,,,
,,,,,,,,,,,,,,,,,,,,3,4,2021-01-11_12h39.10.663,CL_C2S3,2020.1.3,Win32,60,,,,,i,1,0.602125,1,media/dfnb.png,1,"[1,-1,-1]",1,1,Symb,i,RT,0,0,38,2,3,99,99,i,0.602125,1,4,38,0,38,0,1,,,,,,,
,,,,,,,,,,,,,,,,,,,,3,4,2021-01-11_12h39.10.663,CL_C2S3,2020.1.3,Win32,60,,,,,u,1,0.488925,1,media/dfnb.png,2,"[-1,1,-1]",4,1,Symb,u,RT,0,0,39,2,3,99,99,u,0.488925,1,4,39,0,39,0,1,,,,,,,
,,,,,,,,,,,,,,,,,,,,3,4,2021-01-11_12h39.10.663,CL_C2S3,2020.1.3,Win32,60,,,,,i,1,0.48906,2,media/dknb.png,2,"[-1,1,-1]",5,0,Symb,i,RT,0,0,40,2,3,99,99,i,0.48906,1,4,40,0,40,0,1,,,,,,,
,,,,,,,,,,,,,,,,,,,,3,4,2021-01-11_12h39.10.663,CL_C2S3,2020.1.3,Win32,60,,,,,h,1,0.48942,0,media/dcnb.png,2,"[-1,1,-1]",3,0,Symb,h,RT,0,0,41,2,3,99,99,h,0.48942,1,4,41,0,41,0,1,,,,,,,
,,,,,,,,,,,,,,,,,,,,3,4,2021-01-11_12h39.10.663,CL_C2S3,2020.1.3,Win32,60,,,,,h,1,0.41883,0,media/dcnb.png,2,"[-1,1,-1]",3,0,Symb,h,RT,0,0,42,2,3,99,99,h,0.41883,1,4,42,0,42,0,1,,,,,,,
,,,,,,,,,,,,,,,,,,,,3,4,2021-01-11_12h39.10.663,CL_C2S3,2020.1.3,Win32,60,,,,,h,1,0.45281,0,media/dcnb.png,1,"[1,-1,-1]",0,0,Symb,h,RT,0,0,43,2,3,99,99,h,0.45281,1,4,43,0,43,0,1,,,,,,,
,,,,,,,,,,,,,,,,,,,,3,4,2021-01-11_12h39.10.663,CL_C2S3,2020.1.3,Win32,60,,,,,h,1,0.41884,0,media/dcnb.png,1,"[1,-1,-1]",0,0,Symb,h,RT,0,0,44,2,3,99,99,h,0.41884,1,4,44,0,44,0,1,,,,,,,
,,,,,,,,,,,,,,,,,,,,3,4,2021-01-11_12h39.10.663,CL_C2S3,2020.1.3,Win32,60,,,,,i,1,0.55528,1,media/dfnb.png,1,"[1,-1,-1]",1,1,Symb,i,RT,0,0,45,2,3,99,99,i,0.55528,1,4,45,0,45,0,1,,,,,,,
,,,,,,,,,,,,,,,,,,,,3,4,2021-01-11_12h39.10.663,CL_C2S3,2020.1.3,Win32,60,,,,,i,1,0.580605,2,media/dknb.png,2,"[-1,1,-1]",5,0,Symb,i,RT,0,0,46,2,3,99,99,i,0.580605,1,4,46,0,46,0,1,,,,,,,
,,,,,,,,,,,,,,,,,,,,3,4,2021-01-11_12h39.10.663,CL_C2S3,2020.1.3,Win32,60,,,,,u,1,0.58392,1,media/dfnb.png,2,"[-1,1,-1]",4,1,Symb,u,RT,0,0,47,2,3,99,99,u,0.58392,1,4,47,0,47,0,1,,,,,,,
,,,,,,,,,,,,,,,,,,,,3,4,2021-01-11_12h39.10.663,CL_C2S3,2020.1.3,Win32,60,,,,,i,1,0.682815,2,media/dknb.png,2,"[-1,1,-1]",5,0,Symb,i,RT,0,0,48,2,3,99,99,i,0.682815,1,4,48,0,48,0,1,,,,,,,
,,,,,,,,,,,,,,,,,,,,3,4,2021-01-11_12h39.10.663,CL_C2S3,2020.1.3,Win32,60,,,,,u,0,0.501005,1,media/dfnb.png,1,"[1,-1,-1]",1,1,Symb,i,RT,0,0,49,2,3,99,99,u,0.501005,0,4,49,0,49,0,1,,,,,,,
,,,,,,,,,,,,,,,,,,,,3,4,2021-01-11_12h39.10.663,CL_C2S3,2020.1.3,Win32,60,,,,,u,1,1.250285,2,media/dknb.png,1,"[1,-1,-1]",2,0,Symb,u,RT,0,0,50,2,3,99,99,u,1.250285,1,4,50,0,50,0,1,,,,,,,
,,,,,,,,,,,,,,,,,,,,3,4,2021-01-11_12h39.10.663,CL_C2S3,2020.1.3,Win32,60,,,,,u,1,0.434475,2,media/dknb.png,1,"[1,-1,-1]",2,0,Symb,u,RT,0,0,51,2,3,99,99,u,0.434475,1,4,51,0,51,0,1,,,,,,,
,,,,,,,,,,,,,,,,,,,,3,4,2021-01-11_12h39.10.663,CL_C2S3,2020.1.3,Win32,60,,,,,u,1,0.585245,1,media/dfnb.png,2,"[-1,1,-1]",4,1,Symb,u,RT,0,0,52,2,3,99,99,u,0.585245,1,4,52,0,52,0,1,,,,,,,
,,,,,,,,,,,,,,,,,,,,3,4,2021-01-11_12h39.10.663,CL_C2S3,2020.1.3,Win32,60,,,,,h,1,0.53396,0,media/dcnb.png,2,"[-1,1,-1]",3,0,Symb,h,RT,0,0,53,2,3,99,99,h,0.53396,1,4,53,0,53,0,1,,,,,,,
,,,,,,,,,,,,,,,,,,,,3,4,2021-01-11_12h39.10.663,CL_C2S3,2020.1.3,Win32,60,,,,,i,1,0.567945,1,media/dfnb.png,1,"[1,-1,-1]",1,1,Symb,i,RT,0,0,54,2,3,99,99,i,0.567945,1,4,54,0,54,0,1,,,,,,,
,,,,,,,,,,,,,,,,,,,,3,4,2021-01-11_12h39.10.663,CL_C2S3,2020.1.3,Win32,60,,,,,u,1,0.551135,1,media/dfnb.png,2,"[-1,1,-1]",4,1,Symb,u,RT,0,0,55,2,3,99,99,u,0.551135,1,4,55,0,55,0,1,,,,,,,
,,,,,,,,,,,,,,,,,,,,3,4,2021-01-11_12h39.10.663,CL_C2S3,2020.1.3,Win32,60,,,,,h,1,0.50116,0,media/dcnb.png,2,"[-1,1,-1]",3,0,Symb,h,RT,0,0,56,2,3,99,99,h,0.50116,1,4,56,0,56,0,1,,,,,,,
,,,,,,,,,,,,,,,,,,,,3,4,2021-01-11_12h39.10.663,CL_C2S3,2020.1.3,Win32,60,,,,,i,1,0.550795,2,media/dknb.png,2,"[-1,1,-1]",5,0,Symb,i,RT,0,0,57,2,3,99,99,i,0.550795,1,4,57,0,57,0,1,,,,,,,
,,,,,,,,,,,,,,,,,,,,3,4,2021-01-11_12h39.10.663,CL_C2S3,2020.1.3,Win32,60,,,,,u,1,0.584375,2,media/dknb.png,1,"[1,-1,-1]",2,0,Symb,u,RT,0,0,58,2,3,99,99,u,0.584375,1,4,58,0,58,0,1,,,,,,,
,,,,,,,,,,,,,,,,,,,,3,4,2021-01-11_12h39.10.663,CL_C2S3,2020.1.3,Win32,60,,,,,h,1,0.41773,0,media/dcnb.png,1,"[1,-1,-1]",0,0,Symb,h,RT,0,0,59,2,3,99,99,h,0.41773,1,4,59,0,59,0,1,,,,,,,
,,,,,,,,,,,,,,,,,,,,3,4,2021-01-11_12h39.10.663,CL_C2S3,2020.1.3,Win32,60,,,,,h,1,0.368525,0,media/dcnb.png,2,"[-1,1,-1]",3,0,Symb,h,RT,0,0,60,2,3,99,99,h,0.368525,1,4,60,0,60,0,1,,,,,,,
,,,,,,,,,,,,,,,,,,,,3,4,2021-01-11_12h39.10.663,CL_C2S3,2020.1.3,Win32,60,,,,,h,1,0.36801,0,media/dcnb.png,1,"[1,-1,-1]",0,0,Symb,h,RT,0,0,61,2,3,99,99,h,0.36801,1,4,61,0,61,0,1,,,,,,,
,,,,,,,,,,,,,,,,,,,,3,4,2021-01-11_12h39.10.663,CL_C2S3,2020.1.3,Win32,60,,,,,i,1,0.90242,1,media/dfnb.png,1,"[1,-1,-1]",1,1,Symb,i,RT,0,0,62,2,3,99,99,i,0.90242,1,4,62,0,62,0,1,,,,,,,
,,,,,,,,,,,,,,,,,,,,3,4,2021-01-11_12h39.10.663,CL_C2S3,2020.1.3,Win32,60,,,,,u,1,0.90766,2,media/dknb.png,1,"[1,-1,-1]",2,0,Symb,u,RT,0,0,63,2,3,99,99,u,0.90766,1,4,63,0,63,0,1,,,,,,,
,,,,,,,,,,,,,,,,,,,,3,4,2021-01-11_12h39.10.663,CL_C2S3,2020.1.3,Win32,60,,,,,u,1,0.468365,2,media/dknb.png,1,"[1,-1,-1]",2,0,Symb,u,RT,0,0,64,2,3,99,99,u,0.468365,1,4,64,0,64,0,1,,,,,,,
,,,,,,,,,,,,,,,,,,,,3,4,2021-01-11_12h39.10.663,CL_C2S3,2020.1.3,Win32,60,,,,,h,1,0.40584,0,media/dcnb.png,2,"[-1,1,-1]",3,0,Symb,h,RT,0,0,65,2,3,99,99,h,0.40584,1,4,65,0,65,0,1,,,,,,,
,,,,,,,,,,,,,,,,,,,,3,4,2021-01-11_12h39.10.663,CL_C2S3,2020.1.3,Win32,60,,,,,i,1,0.600735,2,media/dknb.png,2,"[-1,1,-1]",5,0,Symb,i,RT,0,0,66,2,3,99,99,i,0.600735,1,4,66,0,66,0,1,,,,,,,
,,,,,,,,,,,,,,,,,,,,3,4,2021-01-11_12h39.10.663,CL_C2S3,2020.1.3,Win32,60,,,,,u,1,0.950985,1,media/dfnb.png,2,"[-1,1,-1]",4,1,Symb,u,RT,0,0,67,2,3,99,99,u,0.950985,1,4,67,0,67,0,1,,,,,,,
,,,,,,,,,,,,,,,,,,,,3,4,2021-01-11_12h39.10.663,CL_C2S3,2020.1.3,Win32,60,,,,,i,1,0.45113,1,media/dfnb.png,1,"[1,-1,-1]",1,1,Symb,i,RT,0,0,68,2,3,99,99,i,0.45113,1,4,68,0,68,0,1,,,,,,,
,,,,,,,,,,,,,,,,,,,,3,4,2021-01-11_12h39.10.663,CL_C2S3,2020.1.3,Win32,60,,,,,i,1,0.58436,2,media/dknb.png,2,"[-1,1,-1]",5,0,Symb,i,RT,0,0,69,2,3,99,99,i,0.58436,1,4,69,0,69,0,1,,,,,,,
,,,,,,,,,,,,,,,,,,,,3,4,2021-01-11_12h39.10.663,CL_C2S3,2020.1.3,Win32,60,,,,,u,1,0.56731,1,media/dfnb.png,2,"[-1,1,-1]",4,1,Symb,u,RT,0,0,70,2,3,99,99,u,0.56731,1,4,70,0,70,0,1,,,,,,,
,,,,,,,,,,,,,,,,,,,,3,4,2021-01-11_12h39.10.663,CL_C2S3,2020.1.3,Win32,60,,,,,h,1,0.466335,0,media/dcnb.png,1,"[1,-1,-1]",0,0,Symb,h,RT,0,0,71,2,3,99,99,h,0.466335,1,4,71,0,71,0,1,,,,,,,
,,,,,,,,,,,,,,,,,,,,3,4,2021-01-11_12h39.10.663,CL_C2S3,2020.1.3,Win32,60,,,,,u,1,0.48498,1,media/dfnb.png,2,"[-1,1,-1]",4,1,Symb,u,RT,0,0,72,2,3,99,99,u,0.48498,1,4,72,0,72,0,1,,,,,,,
,,,,,,,,,,,,,,,,,,,,3,4,2021-01-11_12h39.10.663,CL_C2S3,2020.1.3,Win32,60,,,,,i,1,0.601245,1,media/dfnb.png,1,"[1,-1,-1]",1,1,Symb,i,RT,0,0,73,2,3,99,99,i,0.601245,1,4,73,0,73,0,1,,,,,,,
,,,,,,,,,,,,,,,,,,,,3,4,2021-01-11_12h39.10.663,CL_C2S3,2020.1.3,Win32,60,,,,,u,1,0.551345,2,media/dknb.png,1,"[1,-1,-1]",2,0,Symb,u,RT,0,0,74,2,3,99,99,u,0.551345,1,4,74,0,74,0,1,,,,,,,
,,,,,,,,,,,,,,,,,,,,3,4,2021-01-11_12h39.10.663,CL_C2S3,2020.1.3,Win32,60,,,,,i,1,0.56772,2,media/dknb.png,2,"[-1,1,-1]",5,0,Symb,i,RT,0,0,75,2,3,99,99,i,0.56772,1,4,75,0,75,0,1,,,,,,,
,,,,,,,,,,,,,,,,,,,,3,4,2021-01-11_12h39.10.663,CL_C2S3,2020.1.3,Win32,60,,,,,h,1,0.45133,0,media/dcnb.png,1,"[1,-1,-1]",0,0,Symb,h,RT,0,0,76,2,3,99,99,h,0.45133,1,4,76,0,76,0,1,,,,,,,
,,,,,,,,,,,,,,,,,,,,3,4,2021-01-11_12h39.10.663,CL_C2S3,2020.1.3,Win32,60,,,,,h,1,0.384275,0,media/dcnb.png,2,"[-1,1,-1]",3,0,Symb,h,RT,0,0,77,2,3,99,99,h,0.384275,1,4,77,0,77,0,1,,,,,,,
,,,,,,,,,,,,,,,,,,,,3,4,2021-01-11_12h39.10.663,CL_C2S3,2020.1.3,Win32,60,,,,,h,1,0.369025,0,media/dcnb.png,2,"[-1,1,-1]",3,0,Symb,h,RT,0,0,78,2,3,99,99,h,0.369025,1,4,78,0,78,0,1,,,,,,,
,,,,,,,,,,,,,,,,,,,,3,4,2021-01-11_12h39.10.663,CL_C2S3,2020.1.3,Win32,60,,,,,u,1,0.884765,2,media/dknb.png,1,"[1,-1,-1]",2,0,Symb,u,RT,0,0,79,2,3,99,99,u,0.884765,1,4,79,0,79,0,1,,,,,,,
,,,,,,,,,,,,,,,,,,,,3,4,2021-01-11_12h39.10.663,CL_C2S3,2020.1.3,Win32,60,,,,,u,1,0.58451,1,media/dfnb.png,2,"[-1,1,-1]",4,1,Symb,u,RT,0,0,80,2,3,99,99,u,0.58451,1,4,80,0,80,0,1,,,,,,,
,,,,,,,,,,,,,,,,,,,,3,4,2021-01-11_12h39.10.663,CL_C2S3,2020.1.3,Win32,60,,,,,u,0,0.46762,1,media/dfnb.png,1,"[1,-1,-1]",1,1,Symb,i,RT,0,0,81,2,3,99,99,u,0.46762,0,4,81,0,81,0,1,,,,,,,
,,,,,,,,,,,,,,,,,,,,3,4,2021-01-11_12h39.10.663,CL_C2S3,2020.1.3,Win32,60,,,,,i,1,0.620975,2,media/dknb.png,2,"[-1,1,-1]",5,0,Symb,i,RT,0,0,82,2,3,99,99,i,0.620975,1,4,82,0,82,0,1,,,,,,,
,,,,,,,,,,,,,,,,,,,,3,4,2021-01-11_12h39.10.663,CL_C2S3,2020.1.3,Win32,60,,,,,h,1,0.501085,0,media/dcnb.png,1,"[1,-1,-1]",0,0,Symb,h,RT,0,0,83,2,3,99,99,h,0.501085,1,4,83,0,83,0,1,,,,,,,
,,,,,,,,,,,,,,,,,,,,3,4,2021-01-11_12h39.10.663,CL_C2S3,2020.1.3,Win32,60,,,,,i,1,0.61797,2,media/dknb.png,2,"[-1,1,-1]",5,0,Symb,i,RT,0,0,84,2,3,99,99,i,0.61797,1,4,84,0,84,0,1,,,,,,,
,,,,,,,,,,,,,,,,,,,,3,4,2021-01-11_12h39.10.663,CL_C2S3,2020.1.3,Win32,60,,,,,i,1,0.83455,1,media/dfnb.png,1,"[1,-1,-1]",1,1,Symb,i,RT,0,0,85,2,3,99,99,i,0.83455,1,4,85,0,85,0,1,,,,,,,
,,,,,,,,,,,,,,,,,,,,3,4,2021-01-11_12h39.10.663,CL_C2S3,2020.1.3,Win32,60,,,,,h,1,0.55054,0,media/dcnb.png,1,"[1,-1,-1]",0,0,Symb,h,RT,0,0,86,2,3,99,99,h,0.55054,1,4,86,0,86,0,1,,,,,,,
,,,,,,,,,,,,,,,,,,,,3,4,2021-01-11_12h39.10.663,CL_C2S3,2020.1.3,Win32,60,,,,,u,1,1.05154,2,media/dknb.png,1,"[1,-1,-1]",2,0,Symb,u,RT,0,0,87,2,3,99,99,u,1.05154,1,4,87,0,87,0,1,,,,,,,
,,,,,,,,,,,,,,,,,,,,3,4,2021-01-11_12h39.10.663,CL_C2S3,2020.1.3,Win32,60,,,,,h,1,0.467555,0,media/dcnb.png,2,"[-1,1,-1]",3,0,Symb,h,RT,0,0,88,2,3,99,99,h,0.467555,1,4,88,0,88,0,1,,,,,,,
,,,,,,,,,,,,,,,,,,,,3,4,2021-01-11_12h39.10.663,CL_C2S3,2020.1.3,Win32,60,,,,,u,1,0.80037,1,media/dfnb.png,2,"[-1,1,-1]",4,1,Symb,u,RT,0,0,89,2,3,99,99,u,0.80037,1,4,89,0,89,0,1,,,,,,,
,,,,,,,,,,,,,,,,,,,,3,4,2021-01-11_12h39.10.663,CL_C2S3,2020.1.3,Win32,60,,,,,h,1,0.584025,0,media/dcnb.png,1,"[1,-1,-1]",0,0,Symb,h,RT,0,0,90,2,3,99,99,h,0.584025,1,4,90,0,90,0,1,,,,,,,
,,,,,,,,,,,,,,,,,,,,3,4,2021-01-11_12h39.10.663,CL_C2S3,2020.1.3,Win32,60,,,,,i,1,0.517665,2,media/dknb.png,2,"[-1,1,-1]",5,0,Symb,i,RT,0,0,91,2,3,99,99,i,0.517665,1,4,91,0,91,0,1,,,,,,,
,,,,,,,,,,,,,,,,,,,,3,4,2021-01-11_12h39.10.663,CL_C2S3,2020.1.3,Win32,60,,,,,h,1,0.467685,0,media/dcnb.png,1,"[1,-1,-1]",0,0,Symb,h,RT,0,0,92,2,3,99,99,h,0.467685,1,4,92,0,92,0,1,,,,,,,
,,,,,,,,,,,,,,,,,,,,3,4,2021-01-11_12h39.10.663,CL_C2S3,2020.1.3,Win32,60,,,,,i,1,0.634465,1,media/dfnb.png,1,"[1,-1,-1]",1,1,Symb,i,RT,0,0,93,2,3,99,99,i,0.634465,1,4,93,0,93,0,1,,,,,,,
,,,,,,,,,,,,,,,,,,,,3,4,2021-01-11_12h39.10.663,CL_C2S3,2020.1.3,Win32,60,,,,,h,1,0.68446,0,media/dcnb.png,2,"[-1,1,-1]",3,0,Symb,h,RT,0,0,94,2,3,99,99,h,0.68446,1,4,94,0,94,0,1,,,,,,,
,,,,,,,,,,,,,,,,,,,,3,4,2021-01-11_12h39.10.663,CL_C2S3,2020.1.3,Win32,60,,,,,i,1,0.985135,2,media/dknb.png,2,"[-1,1,-1]",5,0,Symb,i,RT,0,0,95,2,3,99,99,i,0.985135,1,4,95,0,95,0,1,,,,,,,
,,,,,,,,,,,,,,,,,,,,3,4,2021-01-11_12h39.10.663,CL_C2S3,2020.1.3,Win32,60,,,,,h,1,0.484145,0,media/dcnb.png,2,"[-1,1,-1]",3,0,Symb,h,RT,0,0,96,2,3,99,99,h,0.484145,1,4,96,0,96,0,1,,,,,,,
,,,,,,,,,,,,,,,,,,,,3,4,2021-01-11_12h39.10.663,CL_C2S3,2020.1.3,Win32,60,,,,,u,1,1.034295,1,media/dfnb.png,2,"[-1,1,-1]",4,1,Symb,u,RT,0,0,97,2,3,99,99,u,1.034295,1,4,97,0,97,0,1,,,,,,,
,,,,,,,,,,,,,,,,,,,,3,4,2021-01-11_12h39.10.663,CL_C2S3,2020.1.3,Win32,60,,,,,u,1,0.717375,2,media/dknb.png,1,"[1,-1,-1]",2,0,Symb,u,RT,0,0,98,2,3,99,99,u,0.717375,1,4,98,0,98,0,1,,,,,,,
,,,,,,,,,,,,,,,,,,,,3,4,2021-01-11_12h39.10.663,CL_C2S3,2020.1.3,Win32,60,,,,,u,1,0.766675,1,media/dfnb.png,2,"[-1,1,-1]",4,1,Symb,u,RT,0,0,99,2,3,99,99,u,0.766675,1,4,99,0,99,0,1,,,,,,,
,,,,,,,,,,,,,,,,,,,,3,4,2021-01-11_12h39.10.663,CL_C2S3,2020.1.3,Win32,60,,,,,i,1,0.63449,1,media/dfnb.png,1,"[1,-1,-1]",1,1,Symb,i,RT,0,0,100,2,3,99,99,i,0.63449,1,4,100,0,100,0,1,,,,,,,
,,,,,,,,,,,,,,,,,,,,3,4,2021-01-11_12h39.10.663,CL_C2S3,2020.1.3,Win32,60,,,,,u,1,1.08346,2,media/dknb.png,1,"[1,-1,-1]",2,0,Symb,u,RT,0,0,101,2,3,99,99,u,1.08346,1,4,101,0,101,0,1,,,,,,,
,,,,,,,,,,,,,,,,,,,,3,4,2021-01-11_12h39.10.663,CL_C2S3,2020.1.3,Win32,60,,,,,h,1,0.4344,0,media/dcnb.png,2,"[-1,1,-1]",3,0,Symb,h,RT,0,0,102,2,3,99,99,h,0.4344,1,4,102,0,102,0,1,,,,,,,
,,,,,,,,,,,,,,,,,,,,3,4,2021-01-11_12h39.10.663,CL_C2S3,2020.1.3,Win32,60,,,,,i,1,0.6379,1,media/dfnb.png,1,"[1,-1,-1]",1,1,Symb,i,RT,0,0,103,2,3,99,99,i,0.6379,1,4,103,0,103,0,1,,,,,,,
,,,,,,,,,,,,,,,,,,,,3,4,2021-01-11_12h39.10.663,CL_C2S3,2020.1.3,Win32,60,,,,,h,1,0.51886,0,media/dcnb.png,2,"[-1,1,-1]",3,0,Symb,h,RT,0,0,104,2,3,99,99,h,0.51886,1,4,104,0,104,0,1,,,,,,,
,,,,,,,,,,,,,,,,,,,,3,4,2021-01-11_12h39.10.663,CL_C2S3,2020.1.3,Win32,60,,,,,i,1,0.63194,2,media/dknb.png,2,"[-1,1,-1]",5,0,Symb,i,RT,0,0,105,2,3,99,99,i,0.63194,1,4,105,0,105,0,1,,,,,,,
,,,,,,,,,,,,,,,,,,,,3,4,2021-01-11_12h39.10.663,CL_C2S3,2020.1.3,Win32,60,,,,,h,1,0.51662,0,media/dcnb.png,1,"[1,-1,-1]",0,0,Symb,h,RT,0,0,106,2,3,99,99,h,0.51662,1,4,106,0,106,0,1,,,,,,,
,,,,,,,,,,,,,,,,,,,,3,4,2021-01-11_12h39.10.663,CL_C2S3,2020.1.3,Win32,60,,,,,i,1,0.55103,2,media/dknb.png,2,"[-1,1,-1]",5,0,Symb,i,RT,0,0,107,2,3,99,99,i,0.55103,1,4,107,0,107,0,1,,,,,,,
,,,,,,,,,,,,,,,,,,,,3,4,2021-01-11_12h39.10.663,CL_C2S3,2020.1.3,Win32,60,,,,,u,1,0.58605,2,media/dknb.png,1,"[1,-1,-1]",2,0,Symb,u,RT,0,0,108,2,3,99,99,u,0.58605,1,4,108,0,108,0,1,,,,,,,
,,,,,,,,,,,,,,,,,,,,3,4,2021-01-11_12h39.10.663,CL_C2S3,2020.1.3,Win32,60,,,,,i,1,0.717695,1,media/dfnb.png,1,"[1,-1,-1]",1,1,Symb,i,RT,0,0,109,2,3,99,99,i,0.717695,1,4,109,0,109,0,1,,,,,,,
,,,,,,,,,,,,,,,,,,,,3,4,2021-01-11_12h39.10.663,CL_C2S3,2020.1.3,Win32,60,,,,,u,1,0.517815,1,media/dfnb.png,2,"[-1,1,-1]",4,1,Symb,u,RT,0,0,110,2,3,99,99,u,0.517815,1,4,110,0,110,0,1,,,,,,,
,,,,,,,,,,,,,,,,,,,,3,4,2021-01-11_12h39.10.663,CL_C2S3,2020.1.3,Win32,60,,,,,u,1,0.534545,2,media/dknb.png,1,"[1,-1,-1]",2,0,Symb,u,RT,0,0,111,2,3,99,99,u,0.534545,1,4,111,0,111,0,1,,,,,,,
,,,,,,,,,,,,,,,,,,,,3,4,2021-01-11_12h39.10.663,CL_C2S3,2020.1.3,Win32,60,,,,,u,1,0.58461,1,media/dfnb.png,2,"[-1,1,-1]",4,1,Symb,u,RT,0,0,112,2,3,99,99,u,0.58461,1,4,112,0,112,0,1,,,,,,,
,,,,,,,,,,,,,,,,,,,,3,4,2021-01-11_12h39.10.663,CL_C2S3,2020.1.3,Win32,60,,,,,h,1,0.500995,0,media/dcnb.png,1,"[1,-1,-1]",0,0,Symb,h,RT,0,0,113,2,3,99,99,h,0.500995,1,4,113,0,113,0,1,,,,,,,
,,,,,,,,,,,,,,,,,,,,3,4,2021-01-11_12h39.10.663,CL_C2S3,2020.1.3,Win32,60,,,,,u,1,0.684335,2,media/dknb.png,1,"[1,-1,-1]",2,0,Symb,u,RT,0,0,114,2,3,99,99,u,0.684335,1,4,114,0,114,0,1,,,,,,,
,,,,,,,,,,,,,,,,,,,,3,4,2021-01-11_12h39.10.663,CL_C2S3,2020.1.3,Win32,60,,,,,u,1,0.58441,1,media/dfnb.png,2,"[-1,1,-1]",4,1,Symb,u,RT,0,0,115,2,3,99,99,u,0.58441,1,4,115,0,115,0,1,,,,,,,
,,,,,,,,,,,,,,,,,,,,3,4,2021-01-11_12h39.10.663,CL_C2S3,2020.1.3,Win32,60,,,,,h,1,0.501365,0,media/dcnb.png,2,"[-1,1,-1]",3,0,Symb,h,RT,0,0,116,2,3,99,99,h,0.501365,1,4,116,0,116,0,1,,,,,,,
,,,,,,,,,,,,,,,,,,,,3,4,2021-01-11_12h39.10.663,CL_C2S3,2020.1.3,Win32,60,,,,,u,0,0.53442,1,media/dfnb.png,1,"[1,-1,-1]",1,1,Symb,i,RT,0,0,117,2,3,99,99,u,0.53442,0,4,117,0,117,0,1,,,,,,,
,,,,,,,,,,,,,,,,,,,,3,4,2021-01-11_12h39.10.663,CL_C2S3,2020.1.3,Win32,60,,,,,i,1,0.58424,2,media/dknb.png,2,"[-1,1,-1]",5,0,Symb,i,RT,0,0,118,2,3,99,99,i,0.58424,1,4,118,0,118,0,1,,,,,,,
,,,,,,,,,,,,,,,,,,,,3,4,2021-01-11_12h39.10.663,CL_C2S3,2020.1.3,Win32,60,,,,,h,1,0.569895,0,media/dcnb.png,1,"[1,-1,-1]",0,0,Symb,h,RT,0,0,119,2,3,99,99,h,0.569895,1,4,119,0,119,0,1,,,,,,,
,,,,,,,,,,,,,,,,,,,,3,4,2021-01-11_12h39.10.663,CL_C2S3,2020.1.3,Win32,60,,,,,,,,,,,,,,,,,,,,,,,,,,,,,,,,,2,0,2,0,1,,
,,,,,,,,,,,,,,,,,,,,3,4,2021-01-11_12h39.10.663,CL_C2S3,2020.1.3,Win32,60,,,h,0.834585,i,1,0.717795,1,media/dfnb.png,1,"[1,-1,-1]",1,1,Symb,i,RT,0,0,0,2,4,99,99,i,0.717795,1,4,0,0,0,0,1,,,,,,,
,,,,,,,,,,,,,,,,,,,,3,4,2021-01-11_12h39.10.663,CL_C2S3,2020.1.3,Win32,60,,,,,u,1,0.620235,2,media/dknb.png,1,"[1,-1,-1]",2,0,Symb,u,RT,0,0,1,2,4,99,99,u,0.620235,1,4,1,0,1,0,1,,,,,,,
,,,,,,,,,,,,,,,,,,,,3,4,2021-01-11_12h39.10.663,CL_C2S3,2020.1.3,Win32,60,,,,,h,0,0.38738,1,media/dfnb.png,2,"[-1,1,-1]",4,1,Symb,u,RT,0,0,2,2,4,99,99,h,0.38738,0,4,2,0,2,0,1,,,,,,,
,,,,,,,,,,,,,,,,,,,,3,4,2021-01-11_12h39.10.663,CL_C2S3,2020.1.3,Win32,60,,,,,h,1,0.45071,0,media/dcnb.png,1,"[1,-1,-1]",0,0,Symb,h,RT,0,0,3,2,4,99,99,h,0.45071,1,4,3,0,3,0,1,,,,,,,
,,,,,,,,,,,,,,,,,,,,3,4,2021-01-11_12h39.10.663,CL_C2S3,2020.1.3,Win32,60,,,,,h,1,0.451,0,media/dcnb.png,2,"[-1,1,-1]",3,0,Symb,h,RT,0,0,4,2,4,99,99,h,0.451,1,4,4,0,4,0,1,,,,,,,
,,,,,,,,,,,,,,,,,,,,3,4,2021-01-11_12h39.10.663,CL_C2S3,2020.1.3,Win32,60,,,,,i,1,0.55084,2,media/dknb.png,2,"[-1,1,-1]",5,0,Symb,i,RT,0,0,5,2,4,99,99,i,0.55084,1,4,5,0,5,0,1,,,,,,,
,,,,,,,,,,,,,,,,,,,,3,4,2021-01-11_12h39.10.663,CL_C2S3,2020.1.3,Win32,60,,,,,i,1,0.70105,1,media/dfnb.png,1,"[1,-1,-1]",1,1,Symb,i,RT,0,0,6,2,4,99,99,i,0.70105,1,4,6,0,6,0,1,,,,,,,
,,,,,,,,,,,,,,,,,,,,3,4,2021-01-11_12h39.10.663,CL_C2S3,2020.1.3,Win32,60,,,,,h,1,0.567565,0,media/dcnb.png,1,"[1,-1,-1]",0,0,Symb,h,RT,0,0,7,2,4,99,99,h,0.567565,1,4,7,0,7,0,1,,,,,,,
,,,,,,,,,,,,,,,,,,,,3,4,2021-01-11_12h39.10.663,CL_C2S3,2020.1.3,Win32,60,,,,,h,1,0.43531,0,media/dcnb.png,2,"[-1,1,-1]",3,0,Symb,h,RT,0,0,8,2,4,99,99,h,0.43531,1,4,8,0,8,0,1,,,,,,,
,,,,,,,,,,,,,,,,,,,,3,4,2021-01-11_12h39.10.663,CL_C2S3,2020.1.3,Win32,60,,,,,u,1,0.61758,1,media/dfnb.png,2,"[-1,1,-1]",4,1,Symb,u,RT,0,0,9,2,4,99,99,u,0.61758,1,4,9,0,9,0,1,,,,,,,
,,,,,,,,,,,,,,,,,,,,3,4,2021-01-11_12h39.10.663,CL_C2S3,2020.1.3,Win32,60,,,,,u,1,0.634045,2,media/dknb.png,1,"[1,-1,-1]",2,0,Symb,u,RT,0,0,10,2,4,99,99,u,0.634045,1,4,10,0,10,0,1,,,,,,,
,,,,,,,,,,,,,,,,,,,,3,4,2021-01-11_12h39.10.663,CL_C2S3,2020.1.3,Win32,60,,,,,i,1,0.5855,2,media/dknb.png,2,"[-1,1,-1]",5,0,Symb,i,RT,0,0,11,2,4,99,99,i,0.5855,1,4,11,0,11,0,1,,,,,,,
,,,,,,,,,,,,,,,,,,,,3,4,2021-01-11_12h39.10.663,CL_C2S3,2020.1.3,Win32,60,,,,,i,1,0.7357,1,media/dfnb.png,1,"[1,-1,-1]",1,1,Symb,i,RT,0,0,12,2,4,99,99,i,0.7357,1,4,12,0,12,0,1,,,,,,,
,,,,,,,,,,,,,,,,,,,,3,4,2021-01-11_12h39.10.663,CL_C2S3,2020.1.3,Win32,60,,,,,h,1,0.501185,0,media/dcnb.png,1,"[1,-1,-1]",0,0,Symb,h,RT,0,0,13,2,4,99,99,h,0.501185,1,4,13,0,13,0,1,,,,,,,
,,,,,,,,,,,,,,,,,,,,3,4,2021-01-11_12h39.10.663,CL_C2S3,2020.1.3,Win32,60,,,,,h,1,0.33446,0,media/dcnb.png,2,"[-1,1,-1]",3,0,Symb,h,RT,0,0,14,2,4,99,99,h,0.33446,1,4,14,0,14,0,1,,,,,,,
,,,,,,,,,,,,,,,,,,,,3,4,2021-01-11_12h39.10.663,CL_C2S3,2020.1.3,Win32,60,,,,,i,1,0.5322,2,media/dknb.png,2,"[-1,1,-1]",5,0,Symb,i,RT,0,0,15,2,4,99,99,i,0.5322,1,4,15,0,15,0,1,,,,,,,
,,,,,,,,,,,,,,,,,,,,3,4,2021-01-11_12h39.10.663,CL_C2S3,2020.1.3,Win32,60,,,,,u,1,0.450775,1,media/dfnb.png,2,"[-1,1,-1]",4,1,Symb,u,RT,0,0,16,2,4,99,99,u,0.450775,1,4,16,0,16,0,1,,,,,,,
,,,,,,,,,,,,,,,,,,,,3,4,2021-01-11_12h39.10.663,CL_C2S3,2020.1.3,Win32,60,,,,,i,1,0.567805,2,media/dknb.png,2,"[-1,1,-1]",5,0,Symb,i,RT,0,0,17,2,4,99,99,i,0.567805,1,4,17,0,17,0,1,,,,,,,
,,,,,,,,,,,,,,,,,,,,3,4,2021-01-11_12h39.10.663,CL_C2S3,2020.1.3,Win32,60,,,,,u,1,0.71783,2,media/dknb.png,1,"[1,-1,-1]",2,0,Symb,u,RT,0,0,18,2,4,99,99,u,0.71783,1,4,18,0,18,0,1,,,,,,,
,,,,,,,,,,,,,,,,,,,,3,4,2021-01-11_12h39.10.663,CL_C2S3,2020.1.3,Win32,60,,,,,h,1,0.42123,0,media/dcnb.png,1,"[1,-1,-1]",0,0,Symb,h,RT,0,0,19,2,4,99,99,h,0.42123,1,4,19,0,19,0,1,,,,,,,
,,,,,,,,,,,,,,,,,,,,3,4,2021-01-11_12h39.10.663,CL_C2S3,2020.1.3,Win32,60,,,,,u,1,0.701045,2,media/dknb.png,1,"[1,-1,-1]",2,0,Symb,u,RT,0,0,20,2,4,99,99,u,0.701045,1,4,20,0,20,0,1,,,,,,,
,,,,,,,,,,,,,,,,,,,,3,4,2021-01-11_12h39.10.663,CL_C2S3,2020.1.3,Win32,60,,,,,h,1,0.61777,0,media/dcnb.png,2,"[-1,1,-1]",3,0,Symb,h,RT,0,0,21,2,4,99,99,h,0.61777,1,4,21,0,21,0,1,,,,,,,
,,,,,,,,,,,,,,,,,,,,3,4,2021-01-11_12h39.10.663,CL_C2S3,2020.1.3,Win32,60,,,,,u,1,0.584445,1,media/dfnb.png,2,"[-1,1,-1]",4,1,Symb,u,RT,0,0,22,2,4,99,99,u,0.584445,1,4,22,0,22,0,1,,,,,,,
,,,,,,,,,,,,,,,,,,,,3,4,2021-01-11_12h39.10.663,CL_C2S3,2020.1.3,Win32,60,,,,,i,1,0.617795,1,media/dfnb.png,1,"[1,-1,-1]",1,1,Symb,i,RT,0,0,23,2,4,99,99,i,0.617795,1,4,23,0,23,0,1,,,,,,,
,,,,,,,,,,,,,,,,,,,,3,4,2021-01-11_12h39.10.663,CL_C2S3,2020.1.3,Win32,60,,,,,h,1,0.46784,0,media/dcnb.png,2,"[-1,1,-1]",3,0,Symb,h,RT,0,0,24,2,4,99,99,h,0.46784,1,4,24,0,24,0,1,,,,,,,
,,,,,,,,,,,,,,,,,,,,3,4,2021-01-11_12h39.10.663,CL_C2S3,2020.1.3,Win32,60,,,,,i,1,0.701535,1,media/dfnb.png,1,"[1,-1,-1]",1,1,Symb,i,RT,0,0,25,2,4,99,99,i,0.701535,1,4,25,0,25,0,1,,,,,,,
,,,,,,,,,,,,,,,,,,,,3,4,2021-01-11_12h39.10.663,CL_C2S3,2020.1.3,Win32,60,,,,,i,1,0.55104,2,media/dknb.png,2,"[-1,1,-1]",5,0,Symb,i,RT,0,0,26,2,4,99,99,i,0.55104,1,4,26,0,26,0,1,,,,,,,
,,,,,,,,,,,,,,,,,,,,3,4,2021-01-11_12h39.10.663,CL_C2S3,2020.1.3,Win32,60,,,,,h,1,0.534635,0,media/dcnb.png,1,"[1,-1,-1]",0,0,Symb,h,RT,0,0,27,2,4,99,99,h,0.534635,1,4,27,0,27,0,1,,,,,,,
,,,,,,,,,,,,,,,,,,,,3,4,2021-01-11_12h39.10.663,CL_C2S3,2020.1.3,Win32,60,,,,,u,1,0.534335,2,media/dknb.png,1,"[1,-1,-1]",2,0,Symb,u,RT,0,0,28,2,4,99,99,u,0.534335,1,4,28,0,28,0,1,,,,,,,
,,,,,,,,,,,,,,,,,,,,3,4,2021-01-11_12h39.10.663,CL_C2S3,2020.1.3,Win32,60,,,,,u,1,1.08425,1,media/dfnb.png,2,"[-1,1,-1]",4,1,Symb,u,RT,0,0,29,2,4,99,99,u,1.08425,1,4,29,0,29,0,1,,,,,,,
,,,,,,,,,,,,,,,,,,,,3,4,2021-01-11_12h39.10.663,CL_C2S3,2020.1.3,Win32,60,,,,,i,1,0.56775,1,media/dfnb.png,1,"[1,-1,-1]",1,1,Symb,i,RT,0,0,30,2,4,99,99,i,0.56775,1,4,30,0,30,0,1,,,,,,,
,,,,,,,,,,,,,,,,,,,,3,4,2021-01-11_12h39.10.663,CL_C2S3,2020.1.3,Win32,60,,,,,h,1,0.50135,0,media/dcnb.png,1,"[1,-1,-1]",0,0,Symb,h,RT,0,0,31,2,4,99,99,h,0.50135,1,4,31,0,31,0,1,,,,,,,
,,,,,,,,,,,,,,,,,,,,3,4,2021-01-11_12h39.10.663,CL_C2S3,2020.1.3,Win32,60,,,,,h,1,0.383025,0,media/dcnb.png,1,"[1,-1,-1]",0,0,Symb,h,RT,0,0,32,2,4,99,99,h,0.383025,1,4,32,0,32,0,1,,,,,,,
,,,,,,,,,,,,,,,,,,,,3,4,2021-01-11_12h39.10.663,CL_C2S3,2020.1.3,Win32,60,,,,,u,1,0.65539,2,media/dknb.png,1,"[1,-1,-1]",2,0,Symb,u,RT,0,0,33,2,4,99,99,u,0.65539,1,4,33,0,33,0,1,,,,,,,
,,,,,,,,,,,,,,,,,,,,3,4,2021-01-11_12h39.10.663,CL_C2S3,2020.1.3,Win32,60,,,,,h,1,0.48476,0,media/dcnb.png,2,"[-1,1,-1]",3,0,Symb,h,RT,0,0,34,2,4,99,99,h,0.48476,1,4,34,0,34,0,1,,,,,,,
,,,,,,,,,,,,,,,,,,,,3,4,2021-01-11_12h39.10.663,CL_C2S3,2020.1.3,Win32,60,,,,,u,1,0.671005,2,media/dknb.png,1,"[1,-1,-1]",2,0,Symb,u,RT,0,0,35,2,4,99,99,u,0.671005,1,4,35,0,35,0,1,,,,,,,
,,,,,,,,,,,,,,,,,,,,3,4,2021-01-11_12h39.10.663,CL_C2S3,2020.1.3,Win32,60,,,,,i,1,0.589565,2,media/dknb.png,2,"[-1,1,-1]",5,0,Symb,i,RT,0,0,36,2,4,99,99,i,0.589565,1,4,36,0,36,0,1,,,,,,,
,,,,,,,,,,,,,,,,,,,,3,4,2021-01-11_12h39.10.663,CL_C2S3,2020.1.3,Win32,60,,,,,h,1,0.43894,0,media/dcnb.png,2,"[-1,1,-1]",3,0,Symb,h,RT,0,0,37,2,4,99,99,h,0.43894,1,4,37,0,37,0,1,,,,,,,
,,,,,,,,,,,,,,,,,,,,3,4,2021-01-11_12h39.10.663,CL_C2S3,2020.1.3,Win32,60,,,,,i,1,0.653505,2,media/dknb.png,2,"[-1,1,-1]",5,0,Symb,i,RT,0,0,38,2,4,99,99,i,0.653505,1,4,38,0,38,0,1,,,,,,,
,,,,,,,,,,,,,,,,,,,,3,4,2021-01-11_12h39.10.663,CL_C2S3,2020.1.3,Win32,60,,,,,u,1,0.67072,1,media/dfnb.png,2,"[-1,1,-1]",4,1,Symb,u,RT,0,0,39,2,4,99,99,u,0.67072,1,4,39,0,39,0,1,,,,,,,
,,,,,,,,,,,,,,,,,,,,3,4,2021-01-11_12h39.10.663,CL_C2S3,2020.1.3,Win32,60,,,,,i,1,0.585215,1,media/dfnb.png,1,"[1,-1,-1]",1,1,Symb,i,RT,0,0,40,2,4,99,99,i,0.585215,1,4,40,0,40,0,1,,,,,,,
,,,,,,,,,,,,,,,,,,,,3,4,2021-01-11_12h39.10.663,CL_C2S3,2020.1.3,Win32,60,,,,,u,1,0.471645,1,media/dfnb.png,2,"[-1,1,-1]",4,1,Symb,u,RT,0,0,41,2,4,99,99,u,0.471645,1,4,41,0,41,0,1,,,,,,,
,,,,,,,,,,,,,,,,,,,,3,4,2021-01-11_12h39.10.663,CL_C2S3,2020.1.3,Win32,60,,,,,u,1,0.672605,2,media/dknb.png,1,"[1,-1,-1]",2,0,Symb,u,RT,0,0,42,2,4,99,99,u,0.672605,1,4,42,0,42,0,1,,,,,,,
,,,,,,,,,,,,,,,,,,,,3,4,2021-01-11_12h39.10.663,CL_C2S3,2020.1.3,Win32,60,,,,,i,1,0.68025,1,media/dfnb.png,1,"[1,-1,-1]",1,1,Symb,i,RT,0,0,43,2,4,99,99,i,0.68025,1,4,43,0,43,0,1,,,,,,,
,,,,,,,,,,,,,,,,,,,,3,4,2021-01-11_12h39.10.663,CL_C2S3,2020.1.3,Win32,60,,,,,h,1,0.506275,0,media/dcnb.png,1,"[1,-1,-1]",0,0,Symb,h,RT,0,0,44,2,4,99,99,h,0.506275,1,4,44,0,44,0,1,,,,,,,
,,,,,,,,,,,,,,,,,,,,3,4,2021-01-11_12h39.10.663,CL_C2S3,2020.1.3,Win32,60,,,,,h,1,0.40111,0,media/dcnb.png,1,"[1,-1,-1]",0,0,Symb,h,RT,0,0,45,2,4,99,99,h,0.40111,1,4,45,0,45,0,1,,,,,,,
,,,,,,,,,,,,,,,,,,,,3,4,2021-01-11_12h39.10.663,CL_C2S3,2020.1.3,Win32,60,,,,,h,1,0.501215,0,media/dcnb.png,2,"[-1,1,-1]",3,0,Symb,h,RT,0,0,46,2,4,99,99,h,0.501215,1,4,46,0,46,0,1,,,,,,,
,,,,,,,,,,,,,,,,,,,,3,4,2021-01-11_12h39.10.663,CL_C2S3,2020.1.3,Win32,60,,,,,u,1,1.122115,2,media/dknb.png,1,"[1,-1,-1]",2,0,Symb,u,RT,0,0,47,2,4,99,99,u,1.122115,1,4,47,0,47,0,1,,,,,,,
,,,,,,,,,,,,,,,,,,,,3,4,2021-01-11_12h39.10.663,CL_C2S3,2020.1.3,Win32,60,,,,,i,1,1.17163,1,media/dfnb.png,1,"[1,-1,-1]",1,1,Symb,i,RT,0,0,48,2,4,99,99,i,1.17163,1,4,48,0,48,0,1,,,,,,,
,,,,,,,,,,,,,,,,,,,,3,4,2021-01-11_12h39.10.663,CL_C2S3,2020.1.3,Win32,60,,,,,u,1,0.65536,1,media/dfnb.png,2,"[-1,1,-1]",4,1,Symb,u,RT,0,0,49,2,4,99,99,u,0.65536,1,4,49,0,49,0,1,,,,,,,
,,,,,,,,,,,,,,,,,,,,3,4,2021-01-11_12h39.10.663,CL_C2S3,2020.1.3,Win32,60,,,,,h,1,0.41857,0,media/dcnb.png,2,"[-1,1,-1]",3,0,Symb,h,RT,0,0,50,2,4,99,99,h,0.41857,1,4,50,0,50,0,1,,,,,,,
,,,,,,,,,,,,,,,,,,,,3,4,2021-01-11_12h39.10.663,CL_C2S3,2020.1.3,Win32,60,,,,,i,1,0.605385,2,media/dknb.png,2,"[-1,1,-1]",5,0,Symb,i,RT,0,0,51,2,4,99,99,i,0.605385,1,4,51,0,51,0,1,,,,,,,
,,,,,,,,,,,,,,,,,,,,3,4,2021-01-11_12h39.10.663,CL_C2S3,2020.1.3,Win32,60,,,,,i,1,0.46829,2,media/dknb.png,2,"[-1,1,-1]",5,0,Symb,i,RT,0,0,52,2,4,99,99,i,0.46829,1,4,52,0,52,0,1,,,,,,,
,,,,,,,,,,,,,,,,,,,,3,4,2021-01-11_12h39.10.663,CL_C2S3,2020.1.3,Win32,60,,,,,u,1,0.60224,1,media/dfnb.png,2,"[-1,1,-1]",4,1,Symb,u,RT,0,0,53,2,4,99,99,u,0.60224,1,4,53,0,53,0,1,,,,,,,
,,,,,,,,,,,,,,,,,,,,3,4,2021-01-11_12h39.10.663,CL_C2S3,2020.1.3,Win32,60,,,,,u,0,0.42066,2,media/dknb.png,2,"[-1,1,-1]",5,0,Symb,i,RT,0,0,54,2,4,99,99,u,0.42066,0,4,54,0,54,0,1,,,,,,,
,,,,,,,,,,,,,,,,,,,,3,4,2021-01-11_12h39.10.663,CL_C2S3,2020.1.3,Win32,60,,,,,u,1,0.67132,1,media/dfnb.png,2,"[-1,1,-1]",4,1,Symb,u,RT,0,0,55,2,4,99,99,u,0.67132,1,4,55,0,55,0,1,,,,,,,
,,,,,,,,,,,,,,,,,,,,3,4,2021-01-11_12h39.10.663,CL_C2S3,2020.1.3,Win32,60,,,,,h,1,0.37179,0,media/dcnb.png,1,"[1,-1,-1]",0,0,Symb,h,RT,0,0,56,2,4,99,99,h,0.37179,1,4,56,0,56,0,1,,,,,,,
,,,,,,,,,,,,,,,,,,,,3,4,2021-01-11_12h39.10.663,CL_C2S3,2020.1.3,Win32,60,,,,,i,0,0.58712,2,media/dknb.png,1,"[1,-1,-1]",2,0,Symb,u,RT,0,0,57,2,4,99,99,i,0.58712,0,4,57,0,57,0,1,,,,,,,
,,,,,,,,,,,,,,,,,,,,3,4,2021-01-11_12h39.10.663,CL_C2S3,2020.1.3,Win32,60,,,,,h,1,0.41872,0,media/dcnb.png,2,"[-1,1,-1]",3,0,Symb,h,RT,0,0,58,2,4,99,99,h,0.41872,1,4,58,0,58,0,1,,,,,,,
,,,,,,,,,,,,,,,,,,,,3,4,2021-01-11_12h39.10.663,CL_C2S3,2020.1.3,Win32,60,,,,,i,1,0.736885,1,media/dfnb.png,1,"[1,-1,-1]",1,1,Symb,i,RT,0,0,59,2,4,99,99,i,0.736885,1,4,59,0,59,0,1,,,,,,,
,,,,,,,,,,,,,,,,,,,,3,4,2021-01-11_12h39.10.663,CL_C2S3,2020.1.3,Win32,60,,,,,i,1,0.41854,1,media/dfnb.png,1,"[1,-1,-1]",1,1,Symb,i,RT,0,0,60,2,4,99,99,i,0.41854,1,4,60,0,60,0,1,,,,,,,
,,,,,,,,,,,,,,,,,,,,3,4,2021-01-11_12h39.10.663,CL_C2S3,2020.1.3,Win32,60,,,,,h,1,0.602145,0,media/dcnb.png,2,"[-1,1,-1]",3,0,Symb,h,RT,0,0,61,2,4,99,99,h,0.602145,1,4,61,0,61,0,1,,,,,,,
,,,,,,,,,,,,,,,,,,,,3,4,2021-01-11_12h39.10.663,CL_C2S3,2020.1.3,Win32,60,,,,,u,1,0.511795,2,media/dknb.png,1,"[1,-1,-1]",2,0,Symb,u,RT,0,0,62,2,4,99,99,u,0.511795,1,4,62,0,62,0,1,,,,,,,
,,,,,,,,,,,,,,,,,,,,3,4,2021-01-11_12h39.10.663,CL_C2S3,2020.1.3,Win32,60,,,,,h,1,0.635445,0,media/dcnb.png,1,"[1,-1,-1]",0,0,Symb,h,RT,0,0,63,2,4,99,99,h,0.635445,1,4,63,0,63,0,1,,,,,,,
,,,,,,,,,,,,,,,,,,,,3,4,2021-01-11_12h39.10.663,CL_C2S3,2020.1.3,Win32,60,,,,,u,1,0.534105,1,media/dfnb.png,2,"[-1,1,-1]",4,1,Symb,u,RT,0,0,64,2,4,99,99,u,0.534105,1,4,64,0,64,0,1,,,,,,,
,,,,,,,,,,,,,,,,,,,,3,4,2021-01-11_12h39.10.663,CL_C2S3,2020.1.3,Win32,60,,,,,i,0,0.502325,0,media/dcnb.png,2,"[-1,1,-1]",3,0,Symb,h,RT,0,0,65,2,4,99,99,i,0.502325,0,4,65,0,65,0,1,,,,,,,
,,,,,,,,,,,,,,,,,,,,3,4,2021-01-11_12h39.10.663,CL_C2S3,2020.1.3,Win32,60,,,,,u,1,0.667645,2,media/dknb.png,1,"[1,-1,-1]",2,0,Symb,u,RT,0,0,66,2,4,99,99,u,0.667645,1,4,66,0,66,0,1,,,,,,,
,,,,,,,,,,,,,,,,,,,,3,4,2021-01-11_12h39.10.663,CL_C2S3,2020.1.3,Win32,60,,,,,i,1,0.567575,2,media/dknb.png,2,"[-1,1,-1]",5,0,Symb,i,RT,0,0,67,2,4,99,99,i,0.567575,1,4,67,0,67,0,1,,,,,,,
,,,,,,,,,,,,,,,,,,,,3,4,2021-01-11_12h39.10.663,CL_C2S3,2020.1.3,Win32,60,,,,,h,1,0.41774,0,media/dcnb.png,1,"[1,-1,-1]",0,0,Symb,h,RT,0,0,68,2,4,99,99,h,0.41774,1,4,68,0,68,0,1,,,,,,,
,,,,,,,,,,,,,,,,,,,,3,4,2021-01-11_12h39.10.663,CL_C2S3,2020.1.3,Win32,60,,,,,u,1,0.55042,1,media/dfnb.png,2,"[-1,1,-1]",4,1,Symb,u,RT,0,0,69,2,4,99,99,u,0.55042,1,4,69,0,69,0,1,,,,,,,
,,,,,,,,,,,,,,,,,,,,3,4,2021-01-11_12h39.10.663,CL_C2S3,2020.1.3,Win32,60,,,,,i,1,0.53402,1,media/dfnb.png,1,"[1,-1,-1]",1,1,Symb,i,RT,0,0,70,2,4,99,99,i,0.53402,1,4,70,0,70,0,1,,,,,,,
,,,,,,,,,,,,,,,,,,,,3,4,2021-01-11_12h39.10.663,CL_C2S3,2020.1.3,Win32,60,,,,,i,1,0.51873,2,media/dknb.png,2,"[-1,1,-1]",5,0,Symb,i,RT,0,0,71,2,4,99,99,i,0.51873,1,4,71,0,71,0,1,,,,,,,
,,,,,,,,,,,,,,,,,,,,3,4,2021-01-11_12h39.10.663,CL_C2S3,2020.1.3,Win32,60,,,,,u,0,0.500885,1,media/dfnb.png,1,"[1,-1,-1]",1,1,Symb,i,RT,0,0,72,2,4,99,99,u,0.500885,0,4,72,0,72,0,1,,,,,,,
,,,,,,,,,,,,,,,,,,,,3,4,2021-01-11_12h39.10.663,CL_C2S3,2020.1.3,Win32,60,,,,,u,1,0.670515,2,media/dknb.png,1,"[1,-1,-1]",2,0,Symb,u,RT,0,0,73,2,4,99,99,u,0.670515,1,4,73,0,73,0,1,,,,,,,
,,,,,,,,,,,,,,,,,,,,3,4,2021-01-11_12h39.10.663,CL_C2S3,2020.1.3,Win32,60,,,,,u,1,0.62008,1,media/dfnb.png,2,"[-1,1,-1]",4,1,Symb,u,RT,0,0,74,2,4,99,99,u,0.62008,1,4,74,0,74,0,1,,,,,,,
,,,,,,,,,,,,,,,,,,,,3,4,2021-01-11_12h39.10.663,CL_C2S3,2020.1.3,Win32,60,,,,,h,1,0.55103,0,media/dcnb.png,1,"[1,-1,-1]",0,0,Symb,h,RT,0,0,75,2,4,99,99,h,0.55103,1,4,75,0,75,0,1,,,,,,,
,,,,,,,,,,,,,,,,,,,,3,4,2021-01-11_12h39.10.663,CL_C2S3,2020.1.3,Win32,60,,,,,h,1,0.43428,0,media/dcnb.png,2,"[-1,1,-1]",3,0,Symb,h,RT,0,0,76,2,4,99,99,h,0.43428,1,4,76,0,76,0,1,,,,,,,
,,,,,,,,,,,,,,,,,,,,3,4,2021-01-11_12h39.10.663,CL_C2S3,2020.1.3,Win32,60,,,,,h,1,0.46757,0,media/dcnb.png,1,"[1,-1,-1]",0,0,Symb,h,RT,0,0,77,2,4,99,99,h,0.46757,1,4,77,0,77,0,1,,,,,,,
,,,,,,,,,,,,,,,,,,,,3,4,2021-01-11_12h39.10.663,CL_C2S3,2020.1.3,Win32,60,,,,,i,1,0.6856,1,media/dfnb.png,1,"[1,-1,-1]",1,1,Symb,i,RT,0,0,78,2,4,99,99,i,0.6856,1,4,78,0,78,0,1,,,,,,,
,,,,,,,,,,,,,,,,,,,,3,4,2021-01-11_12h39.10.663,CL_C2S3,2020.1.3,Win32,60,,,,,i,1,0.550975,2,media/dknb.png,2,"[-1,1,-1]",5,0,Symb,i,RT,0,0,79,2,4,99,99,i,0.550975,1,4,79,0,79,0,1,,,,,,,
,,,,,,,,,,,,,,,,,,,,3,4,2021-01-11_12h39.10.663,CL_C2S3,2020.1.3,Win32,60,,,,,u,1,0.51765,2,media/dknb.png,1,"[1,-1,-1]",2,0,Symb,u,RT,0,0,80,2,4,99,99,u,0.51765,1,4,80,0,80,0,1,,,,,,,
,,,,,,,,,,,,,,,,,,,,3,4,2021-01-11_12h39.10.663,CL_C2S3,2020.1.3,Win32,60,,,,,h,1,0.50021,0,media/dcnb.png,2,"[-1,1,-1]",3,0,Symb,h,RT,0,0,81,2,4,99,99,h,0.50021,1,4,81,0,81,0,1,,,,,,,
,,,,,,,,,,,,,,,,,,,,3,4,2021-01-11_12h39.10.663,CL_C2S3,2020.1.3,Win32,60,,,,,u,1,0.65128,1,media/dfnb.png,2,"[-1,1,-1]",4,1,Symb,u,RT,0,0,82,2,4,99,99,u,0.65128,1,4,82,0,82,0,1,,,,,,,
,,,,,,,,,,,,,,,,,,,,3,4,2021-01-11_12h39.10.663,CL_C2S3,2020.1.3,Win32,60,,,,,i,1,0.6173,2,media/dknb.png,2,"[-1,1,-1]",5,0,Symb,i,RT,0,0,83,2,4,99,99,i,0.6173,1,4,83,0,83,0,1,,,,,,,
,,,,,,,,,,,,,,,,,,,,3,4,2021-01-11_12h39.10.663,CL_C2S3,2020.1.3,Win32,60,,,,,i,1,0.784445,1,media/dfnb.png,1,"[1,-1,-1]",1,1,Symb,i,RT,0,0,84,2,4,99,99,i,0.784445,1,4,84,0,84,0,1,,,,,,,
,,,,,,,,,,,,,,,,,,,,3,4,2021-01-11_12h39.10.663,CL_C2S3,2020.1.3,Win32,60,,,,,u,1,0.551,1,media/dfnb.png,2,"[-1,1,-1]",4,1,Symb,u,RT,0,0,85,2,4,99,99,u,0.551,1,4,85,0,85,0,1,,,,,,,
,,,,,,,,,,,,,,,,,,,,3,4,2021-01-11_12h39.10.663,CL_C2S3,2020.1.3,Win32,60,,,,,h,1,0.393505,0,media/dcnb.png,1,"[1,-1,-1]",0,0,Symb,h,RT,0,0,86,2,4,99,99,h,0.393505,1,4,86,0,86,0,1,,,,,,,
,,,,,,,,,,,,,,,,,,,,3,4,2021-01-11_12h39.10.663,CL_C2S3,2020.1.3,Win32,60,,,,,h,1,0.36777,0,media/dcnb.png,2,"[-1,1,-1]",3,0,Symb,h,RT,0,0,87,2,4,99,99,h,0.36777,1,4,87,0,87,0,1,,,,,,,
,,,,,,,,,,,,,,,,,,,,3,4,2021-01-11_12h39.10.663,CL_C2S3,2020.1.3,Win32,60,,,,,u,1,0.534465,2,media/dknb.png,1,"[1,-1,-1]",2,0,Symb,u,RT,0,0,88,2,4,99,99,u,0.534465,1,4,88,0,88,0,1,,,,,,,
,,,,,,,,,,,,,,,,,,,,3,4,2021-01-11_12h39.10.663,CL_C2S3,2020.1.3,Win32,60,,,,,i,1,0.540015,2,media/dknb.png,2,"[-1,1,-1]",5,0,Symb,i,RT,0,0,89,2,4,99,99,i,0.540015,1,4,89,0,89,0,1,,,,,,,
,,,,,,,,,,,,,,,,,,,,3,4,2021-01-11_12h39.10.663,CL_C2S3,2020.1.3,Win32,60,,,,,u,1,0.567875,2,media/dknb.png,1,"[1,-1,-1]",2,0,Symb,u,RT,0,0,90,2,4,99,99,u,0.567875,1,4,90,0,90,0,1,,,,,,,
,,,,,,,,,,,,,,,,,,,,3,4,2021-01-11_12h39.10.663,CL_C2S3,2020.1.3,Win32,60,,,,,h,1,0.484425,0,media/dcnb.png,2,"[-1,1,-1]",3,0,Symb,h,RT,0,0,91,2,4,99,99,h,0.484425,1,4,91,0,91,0,1,,,,,,,
,,,,,,,,,,,,,,,,,,,,3,4,2021-01-11_12h39.10.663,CL_C2S3,2020.1.3,Win32,60,,,,,u,1,0.60124,2,media/dknb.png,1,"[1,-1,-1]",2,0,Symb,u,RT,0,0,92,2,4,99,99,u,0.60124,1,4,92,0,92,0,1,,,,,,,
,,,,,,,,,,,,,,,,,,,,3,4,2021-01-11_12h39.10.663,CL_C2S3,2020.1.3,Win32,60,,,,,i,1,0.500955,2,media/dknb.png,2,"[-1,1,-1]",5,0,Symb,i,RT,0,0,93,2,4,99,99,i,0.500955,1,4,93,0,93,0,1,,,,,,,
,,,,,,,,,,,,,,,,,,,,3,4,2021-01-11_12h39.10.663,CL_C2S3,2020.1.3,Win32,60,,,,,u,1,0.567705,1,media/dfnb.png,2,"[-1,1,-1]",4,1,Symb,u,RT,0,0,94,2,4,99,99,u,0.567705,1,4,94,0,94,0,1,,,,,,,
,,,,,,,,,,,,,,,,,,,,3,4,2021-01-11_12h39.10.663,CL_C2S3,2020.1.3,Win32,60,,,,,h,1,0.350585,0,media/dcnb.png,1,"[1,-1,-1]",0,0,Symb,h,RT,0,0,95,2,4,99,99,h,0.350585,1,4,95,0,95,0,1,,,,,,,
,,,,,,,,,,,,,,,,,,,,3,4,2021-01-11_12h39.10.663,CL_C2S3,2020.1.3,Win32,60,,,,,h,1,0.40103,0,media/dcnb.png,2,"[-1,1,-1]",3,0,Symb,h,RT,0,0,96,2,4,99,99,h,0.40103,1,4,96,0,96,0,1,,,,,,,
,,,,,,,,,,,,,,,,,,,,3,4,2021-01-11_12h39.10.663,CL_C2S3,2020.1.3,Win32,60,,,,,i,1,0.584215,1,media/dfnb.png,1,"[1,-1,-1]",1,1,Symb,i,RT,0,0,97,2,4,99,99,i,0.584215,1,4,97,0,97,0,1,,,,,,,
,,,,,,,,,,,,,,,,,,,,3,4,2021-01-11_12h39.10.663,CL_C2S3,2020.1.3,Win32,60,,,,,u,1,0.58513,1,media/dfnb.png,2,"[-1,1,-1]",4,1,Symb,u,RT,0,0,98,2,4,99,99,u,0.58513,1,4,98,0,98,0,1,,,,,,,
,,,,,,,,,,,,,,,,,,,,3,4,2021-01-11_12h39.10.663,CL_C2S3,2020.1.3,Win32,60,,,,,i,1,0.65497,2,media/dknb.png,2,"[-1,1,-1]",5,0,Symb,i,RT,0,0,99,2,4,99,99,i,0.65497,1,4,99,0,99,0,1,,,,,,,
,,,,,,,,,,,,,,,,,,,,3,4,2021-01-11_12h39.10.663,CL_C2S3,2020.1.3,Win32,60,,,,,i,1,0.73437,1,media/dfnb.png,1,"[1,-1,-1]",1,1,Symb,i,RT,0,0,100,2,4,99,99,i,0.73437,1,4,100,0,100,0,1,,,,,,,
,,,,,,,,,,,,,,,,,,,,3,4,2021-01-11_12h39.10.663,CL_C2S3,2020.1.3,Win32,60,,,,,h,1,0.46868,0,media/dcnb.png,1,"[1,-1,-1]",0,0,Symb,h,RT,0,0,101,2,4,99,99,h,0.46868,1,4,101,0,101,0,1,,,,,,,
,,,,,,,,,,,,,,,,,,,,3,4,2021-01-11_12h39.10.663,CL_C2S3,2020.1.3,Win32,60,,,,,h,1,0.40122,0,media/dcnb.png,2,"[-1,1,-1]",3,0,Symb,h,RT,0,0,102,2,4,99,99,h,0.40122,1,4,102,0,102,0,1,,,,,,,
,,,,,,,,,,,,,,,,,,,,3,4,2021-01-11_12h39.10.663,CL_C2S3,2020.1.3,Win32,60,,,,,i,1,0.600975,1,media/dfnb.png,1,"[1,-1,-1]",1,1,Symb,i,RT,0,0,103,2,4,99,99,i,0.600975,1,4,103,0,103,0,1,,,,,,,
,,,,,,,,,,,,,,,,,,,,3,4,2021-01-11_12h39.10.663,CL_C2S3,2020.1.3,Win32,60,,,,,u,1,0.484255,1,media/dfnb.png,2,"[-1,1,-1]",4,1,Symb,u,RT,0,0,104,2,4,99,99,u,0.484255,1,4,104,0,104,0,1,,,,,,,
,,,,,,,,,,,,,,,,,,,,3,4,2021-01-11_12h39.10.663,CL_C2S3,2020.1.3,Win32,60,,,,,u,1,0.467725,1,media/dfnb.png,2,"[-1,1,-1]",4,1,Symb,u,RT,0,0,105,2,4,99,99,u,0.467725,1,4,105,0,105,0,1,,,,,,,
,,,,,,,,,,,,,,,,,,,,3,4,2021-01-11_12h39.10.663,CL_C2S3,2020.1.3,Win32,60,,,,,i,1,0.534295,2,media/dknb.png,2,"[-1,1,-1]",5,0,Symb,i,RT,0,0,106,2,4,99,99,i,0.534295,1,4,106,0,106,0,1,,,,,,,
,,,,,,,,,,,,,,,,,,,,3,4,2021-01-11_12h39.10.663,CL_C2S3,2020.1.3,Win32,60,,,,,i,1,0.853875,2,media/dknb.png,2,"[-1,1,-1]",5,0,Symb,i,RT,0,0,107,2,4,99,99,i,0.853875,1,4,107,0,107,0,1,,,,,,,
,,,,,,,,,,,,,,,,,,,,3,4,2021-01-11_12h39.10.663,CL_C2S3,2020.1.3,Win32,60,,,,,h,1,0.517765,0,media/dcnb.png,2,"[-1,1,-1]",3,0,Symb,h,RT,0,0,108,2,4,99,99,h,0.517765,1,4,108,0,108,0,1,,,,,,,
,,,,,,,,,,,,,,,,,,,,3,4,2021-01-11_12h39.10.663,CL_C2S3,2020.1.3,Win32,60,,,,,u,1,0.5007,2,media/dknb.png,1,"[1,-1,-1]",2,0,Symb,u,RT,0,0,109,2,4,99,99,u,0.5007,1,4,109,0,109,0,1,,,,,,,
,,,,,,,,,,,,,,,,,,,,3,4,2021-01-11_12h39.10.663,CL_C2S3,2020.1.3,Win32,60,,,,,h,1,0.55114,0,media/dcnb.png,1,"[1,-1,-1]",0,0,Symb,h,RT,0,0,110,2,4,99,99,h,0.55114,1,4,110,0,110,0,1,,,,,,,
,,,,,,,,,,,,,,,,,,,,3,4,2021-01-11_12h39.10.663,CL_C2S3,2020.1.3,Win32,60,,,,,h,1,0.401235,0,media/dcnb.png,1,"[1,-1,-1]",0,0,Symb,h,RT,0,0,111,2,4,99,99,h,0.401235,1,4,111,0,111,0,1,,,,,,,
,,,,,,,,,,,,,,,,,,,,3,4,2021-01-11_12h39.10.663,CL_C2S3,2020.1.3,Win32,60,,,,,i,1,0.855775,1,media/dfnb.png,1,"[1,-1,-1]",1,1,Symb,i,RT,0,0,112,2,4,99,99,i,0.855775,1,4,112,0,112,0,1,,,,,,,
,,,,,,,,,,,,,,,,,,,,3,4,2021-01-11_12h39.10.663,CL_C2S3,2020.1.3,Win32,60,,,,,u,1,0.952235,2,media/dknb.png,1,"[1,-1,-1]",2,0,Symb,u,RT,0,0,113,2,4,99,99,u,0.952235,1,4,113,0,113,0,1,,,,,,,
,,,,,,,,,,,,,,,,,,,,3,4,2021-01-11_12h39.10.663,CL_C2S3,2020.1.3,Win32,60,,,,,i,1,0.536805,2,media/dknb.png,2,"[-1,1,-1]",5,0,Symb,i,RT,0,0,114,2,4,99,99,i,0.536805,1,4,114,0,114,0,1,,,,,,,
,,,,,,,,,,,,,,,,,,,,3,4,2021-01-11_12h39.10.663,CL_C2S3,2020.1.3,Win32,60,,,,,u,1,0.6849,2,media/dknb.png,1,"[1,-1,-1]",2,0,Symb,u,RT,0,0,115,2,4,99,99,u,0.6849,1,4,115,0,115,0,1,,,,,,,
,,,,,,,,,,,,,,,,,,,,3,4,2021-01-11_12h39.10.663,CL_C2S3,2020.1.3,Win32,60,,,,,h,1,0.38537,0,media/dcnb.png,2,"[-1,1,-1]",3,0,Symb,h,RT,0,0,116,2,4,99,99,h,0.38537,1,4,116,0,116,0,1,,,,,,,
,,,,,,,,,,,,,,,,,,,,3,4,2021-01-11_12h39.10.663,CL_C2S3,2020.1.3,Win32,60,,,,,i,1,0.770105,1,media/dfnb.png,1,"[1,-1,-1]",1,1,Symb,i,RT,0,0,117,2,4,99,99,i,0.770105,1,4,117,0,117,0,1,,,,,,,
,,,,,,,,,,,,,,,,,,,,3,4,2021-01-11_12h39.10.663,CL_C2S3,2020.1.3,Win32,60,,,,,h,1,0.587685,0,media/dcnb.png,1,"[1,-1,-1]",0,0,Symb,h,RT,0,0,118,2,4,99,99,h,0.587685,1,4,118,0,118,0,1,,,,,,,
,,,,,,,,,,,,,,,,,,,,3,4,2021-01-11_12h39.10.663,CL_C2S3,2020.1.3,Win32,60,,,,,u,1,0.56839,1,media/dfnb.png,2,"[-1,1,-1]",4,1,Symb,u,RT,0,0,119,2,4,99,99,u,0.56839,1,4,119,0,119,0,1,,,,,,,
,,,,,,,,,,,,,,,,,,,,3,4,2021-01-11_12h39.10.663,CL_C2S3,2020.1.3,Win32,60,,,,,,,,,,,,,,,,,,,,,,,,,,,,,,,,,3,0,3,0,1,,
,,,,,,,,,,,,,,,,,,,,3,4,2021-01-11_12h39.10.663,CL_C2S3,2020.1.3,Win32,60,,,h,1.56822,h,1,0.580415,0,media/dcnb.png,1,"[1,-1,-1]",0,0,Symb,h,RT,0,0,0,2,5,99,99,h,0.580415,1,4,0,0,0,0,1,,,,,,,
,,,,,,,,,,,,,,,,,,,,3,4,2021-01-11_12h39.10.663,CL_C2S3,2020.1.3,Win32,60,,,,,i,1,1.0005,2,media/dknb.png,2,"[-1,1,-1]",5,0,Symb,i,RT,0,0,1,2,5,99,99,i,1.0005,1,4,1,0,1,0,1,,,,,,,
,,,,,,,,,,,,,,,,,,,,3,4,2021-01-11_12h39.10.663,CL_C2S3,2020.1.3,Win32,60,,,,,i,0,0.401165,2,media/dknb.png,1,"[1,-1,-1]",2,0,Symb,u,RT,0,0,2,2,5,99,99,i,0.401165,0,4,2,0,2,0,1,,,,,,,
,,,,,,,,,,,,,,,,,,,,3,4,2021-01-11_12h39.10.663,CL_C2S3,2020.1.3,Win32,60,,,,,u,1,0.517705,2,media/dknb.png,1,"[1,-1,-1]",2,0,Symb,u,RT,0,0,3,2,5,99,99,u,0.517705,1,4,3,0,3,0,1,,,,,,,
,,,,,,,,,,,,,,,,,,,,3,4,2021-01-11_12h39.10.663,CL_C2S3,2020.1.3,Win32,60,,,,,h,1,0.434275,0,media/dcnb.png,2,"[-1,1,-1]",3,0,Symb,h,RT,0,0,4,2,5,99,99,h,0.434275,1,4,4,0,4,0,1,,,,,,,
,,,,,,,,,,,,,,,,,,,,3,4,2021-01-11_12h39.10.663,CL_C2S3,2020.1.3,Win32,60,,,,,i,1,0.93432,1,media/dfnb.png,1,"[1,-1,-1]",1,1,Symb,i,RT,0,0,5,2,5,99,99,i,0.93432,1,4,5,0,5,0,1,,,,,,,
,,,,,,,,,,,,,,,,,,,,3,4,2021-01-11_12h39.10.663,CL_C2S3,2020.1.3,Win32,60,,,,,u,1,0.51922,1,media/dfnb.png,2,"[-1,1,-1]",4,1,Symb,u,RT,0,0,6,2,5,99,99,u,0.51922,1,4,6,0,6,0,1,,,,,,,
,,,,,,,,,,,,,,,,,,,,3,4,2021-01-11_12h39.10.663,CL_C2S3,2020.1.3,Win32,60,,,,,h,1,0.50093,0,media/dcnb.png,2,"[-1,1,-1]",3,0,Symb,h,RT,0,0,7,2,5,99,99,h,0.50093,1,4,7,0,7,0,1,,,,,,,
,,,,,,,,,,,,,,,,,,,,3,4,2021-01-11_12h39.10.663,CL_C2S3,2020.1.3,Win32,60,,,,,i,1,1.20089,1,media/dfnb.png,1,"[1,-1,-1]",1,1,Symb,i,RT,0,0,8,2,5,99,99,i,1.20089,1,4,8,0,8,0,1,,,,,,,
,,,,,,,,,,,,,,,,,,,,3,4,2021-01-11_12h39.10.663,CL_C2S3,2020.1.3,Win32,60,,,,,i,1,0.550945,2,media/dknb.png,2,"[-1,1,-1]",5,0,Symb,i,RT,0,0,9,2,5,99,99,i,0.550945,1,4,9,0,9,0,1,,,,,,,
,,,,,,,,,,,,,,,,,,,,3,4,2021-01-11_12h39.10.663,CL_C2S3,2020.1.3,Win32,60,,,,,u,1,0.567385,1,media/dfnb.png,2,"[-1,1,-1]",4,1,Symb,u,RT,0,0,10,2,5,99,99,u,0.567385,1,4,10,0,10,0,1,,,,,,,
,,,,,,,,,,,,,,,,,,,,3,4,2021-01-11_12h39.10.663,CL_C2S3,2020.1.3,Win32,60,,,,,h,1,0.434455,0,media/dcnb.png,1,"[1,-1,-1]",0,0,Symb,h,RT,0,0,11,2,5,99,99,h,0.434455,1,4,11,0,11,0,1,,,,,,,
,,,,,,,,,,,,,,,,,,,,3,4,2021-01-11_12h39.10.663,CL_C2S3,2020.1.3,Win32,60,,,,,h,1,0.434355,0,media/dcnb.png,2,"[-1,1,-1]",3,0,Symb,h,RT,0,0,12,2,5,99,99,h,0.434355,1,4,12,0,12,0,1,,,,,,,
,,,,,,,,,,,,,,,,,,,,3,4,2021-01-11_12h39.10.663,CL_C2S3,2020.1.3,Win32,60,,,,,i,1,0.751015,2,media/dknb.png,2,"[-1,1,-1]",5,0,Symb,i,RT,0,0,13,2,5,99,99,i,0.751015,1,4,13,0,13,0,1,,,,,,,
,,,,,,,,,,,,,,,,,,,,3,4,2021-01-11_12h39.10.663,CL_C2S3,2020.1.3,Win32,60,,,,,h,1,0.650895,0,media/dcnb.png,2,"[-1,1,-1]",3,0,Symb,h,RT,0,0,14,2,5,99,99,h,0.650895,1,4,14,0,14,0,1,,,,,,,
,,,,,,,,,,,,,,,,,,,,3,4,2021-01-11_12h39.10.663,CL_C2S3,2020.1.3,Win32,60,,,,,u,1,0.81905,1,media/dfnb.png,2,"[-1,1,-1]",4,1,Symb,u,RT,0,0,15,2,5,99,99,u,0.81905,1,4,15,0,15,0,1,,,,,,,
,,,,,,,,,,,,,,,,,,,,3,4,2021-01-11_12h39.10.663,CL_C2S3,2020.1.3,Win32,60,,,,,h,1,0.50109,0,media/dcnb.png,1,"[1,-1,-1]",0,0,Symb,h,RT,0,0,16,2,5,99,99,h,0.50109,1,4,16,0,16,0,1,,,,,,,
,,,,,,,,,,,,,,,,,,,,3,4,2021-01-11_12h39.10.663,CL_C2S3,2020.1.3,Win32,60,,,,,u,1,0.733105,2,media/dknb.png,1,"[1,-1,-1]",2,0,Symb,u,RT,0,0,17,2,5,99,99,u,0.733105,1,4,17,0,17,0,1,,,,,,,
,,,,,,,,,,,,,,,,,,,,3,4,2021-01-11_12h39.10.663,CL_C2S3,2020.1.3,Win32,60,,,,,i,1,0.534405,2,media/dknb.png,2,"[-1,1,-1]",5,0,Symb,i,RT,0,0,18,2,5,99,99,i,0.534405,1,4,18,0,18,0,1,,,,,,,
,,,,,,,,,,,,,,,,,,,,3,4,2021-01-11_12h39.10.663,CL_C2S3,2020.1.3,Win32,60,,,,,i,1,0.83426,1,media/dfnb.png,1,"[1,-1,-1]",1,1,Symb,i,RT,0,0,19,2,5,99,99,i,0.83426,1,4,19,0,19,0,1,,,,,,,
,,,,,,,,,,,,,,,,,,,,3,4,2021-01-11_12h39.10.663,CL_C2S3,2020.1.3,Win32,60,,,,,h,1,0.48429,0,media/dcnb.png,1,"[1,-1,-1]",0,0,Symb,h,RT,0,0,20,2,5,99,99,h,0.48429,1,4,20,0,20,0,1,,,,,,,
,,,,,,,,,,,,,,,,,,,,3,4,2021-01-11_12h39.10.663,CL_C2S3,2020.1.3,Win32,60,,,,,u,1,0.60128,2,media/dknb.png,1,"[1,-1,-1]",2,0,Symb,u,RT,0,0,21,2,5,99,99,u,0.60128,1,4,21,0,21,0,1,,,,,,,
,,,,,,,,,,,,,,,,,,,,3,4,2021-01-11_12h39.10.663,CL_C2S3,2020.1.3,Win32,60,,,,,i,1,0.73441,1,media/dfnb.png,1,"[1,-1,-1]",1,1,Symb,i,RT,0,0,22,2,5,99,99,i,0.73441,1,4,22,0,22,0,1,,,,,,,
,,,,,,,,,,,,,,,,,,,,3,4,2021-01-11_12h39.10.663,CL_C2S3,2020.1.3,Win32,60,,,,,u,1,0.55136,1,media/dfnb.png,2,"[-1,1,-1]",4,1,Symb,u,RT,0,0,23,2,5,99,99,u,0.55136,1,4,23,0,23,0,1,,,,,,,
,,,,,,,,,,,,,,,,,,,,3,4,2021-01-11_12h39.10.663,CL_C2S3,2020.1.3,Win32,60,,,,,h,1,0.434405,0,media/dcnb.png,2,"[-1,1,-1]",3,0,Symb,h,RT,0,0,24,2,5,99,99,h,0.434405,1,4,24,0,24,0,1,,,,,,,
,,,,,,,,,,,,,,,,,,,,3,4,2021-01-11_12h39.10.663,CL_C2S3,2020.1.3,Win32,60,,,,,u,1,0.56757,2,media/dknb.png,1,"[1,-1,-1]",2,0,Symb,u,RT,0,0,25,2,5,99,99,u,0.56757,1,4,25,0,25,0,1,,,,,,,
,,,,,,,,,,,,,,,,,,,,3,4,2021-01-11_12h39.10.663,CL_C2S3,2020.1.3,Win32,60,,,,,u,1,0.834295,1,media/dfnb.png,2,"[-1,1,-1]",4,1,Symb,u,RT,0,0,26,2,5,99,99,u,0.834295,1,4,26,0,26,0,1,,,,,,,
,,,,,,,,,,,,,,,,,,,,3,4,2021-01-11_12h39.10.663,CL_C2S3,2020.1.3,Win32,60,,,,,i,1,0.569885,2,media/dknb.png,2,"[-1,1,-1]",5,0,Symb,i,RT,0,0,27,2,5,99,99,i,0.569885,1,4,27,0,27,0,1,,,,,,,
,,,,,,,,,,,,,,,,,,,,3,4,2021-01-11_12h39.10.663,CL_C2S3,2020.1.3,Win32,60,,,,,i,1,1.902145,1,media/dfnb.png,1,"[1,-1,-1]",1,1,Symb,i,RT,0,0,28,2,5,99,99,i,1.902145,1,4,28,0,28,0,1,,,,,,,
,,,,,,,,,,,,,,,,,,,,3,4,2021-01-11_12h39.10.663,CL_C2S3,2020.1.3,Win32,60,,,,,h,1,0.467975,0,media/dcnb.png,1,"[1,-1,-1]",0,0,Symb,h,RT,0,0,29,2,5,99,99,h,0.467975,1,4,29,0,29,0,1,,,,,,,
,,,,,,,,,,,,,,,,,,,,3,4,2021-01-11_12h39.10.663,CL_C2S3,2020.1.3,Win32,60,,,,,u,1,0.484365,1,media/dfnb.png,2,"[-1,1,-1]",4,1,Symb,u,RT,0,0,30,2,5,99,99,u,0.484365,1,4,30,0,30,0,1,,,,,,,
,,,,,,,,,,,,,,,,,,,,3,4,2021-01-11_12h39.10.663,CL_C2S3,2020.1.3,Win32,60,,,,,h,1,0.53444,0,media/dcnb.png,1,"[1,-1,-1]",0,0,Symb,h,RT,0,0,31,2,5,99,99,h,0.53444,1,4,31,0,31,0,1,,,,,,,
,,,,,,,,,,,,,,,,,,,,3,4,2021-01-11_12h39.10.663,CL_C2S3,2020.1.3,Win32,60,,,,,i,1,0.50197,2,media/dknb.png,2,"[-1,1,-1]",5,0,Symb,i,RT,0,0,32,2,5,99,99,i,0.50197,1,4,32,0,32,0,1,,,,,,,
,,,,,,,,,,,,,,,,,,,,3,4,2021-01-11_12h39.10.663,CL_C2S3,2020.1.3,Win32,60,,,,,i,0,0.40843,0,media/dcnb.png,2,"[-1,1,-1]",3,0,Symb,h,RT,0,0,33,2,5,99,99,i,0.40843,0,4,33,0,33,0,1,,,,,,,
,,,,,,,,,,,,,,,,,,,,3,4,2021-01-11_12h39.10.663,CL_C2S3,2020.1.3,Win32,60,,,,,h,1,0.75126,0,media/dcnb.png,2,"[-1,1,-1]",3,0,Symb,h,RT,0,0,34,2,5,99,99,h,0.75126,1,4,34,0,34,0,1,,,,,,,
,,,,,,,,,,,,,,,,,,,,3,4,2021-01-11_12h39.10.663,CL_C2S3,2020.1.3,Win32,60,,,,,i,1,0.784015,1,media/dfnb.png,1,"[1,-1,-1]",1,1,Symb,i,RT,0,0,35,2,5,99,99,i,0.784015,1,4,35,0,35,0,1,,,,,,,
,,,,,,,,,,,,,,,,,,,,3,4,2021-01-11_12h39.10.663,CL_C2S3,2020.1.3,Win32,60,,,,,u,1,0.600985,1,media/dfnb.png,2,"[-1,1,-1]",4,1,Symb,u,RT,0,0,36,2,5,99,99,u,0.600985,1,4,36,0,36,0,1,,,,,,,
,,,,,,,,,,,,,,,,,,,,3,4,2021-01-11_12h39.10.663,CL_C2S3,2020.1.3,Win32,60,,,,,h,1,0.41781,0,media/dcnb.png,1,"[1,-1,-1]",0,0,Symb,h,RT,0,0,37,2,5,99,99,h,0.41781,1,4,37,0,37,0,1,,,,,,,
,,,,,,,,,,,,,,,,,,,,3,4,2021-01-11_12h39.10.663,CL_C2S3,2020.1.3,Win32,60,,,,,u,1,0.6346,2,media/dknb.png,1,"[1,-1,-1]",2,0,Symb,u,RT,0,0,38,2,5,99,99,u,0.6346,1,4,38,0,38,0,1,,,,,,,
,,,,,,,,,,,,,,,,,,,,3,4,2021-01-11_12h39.10.663,CL_C2S3,2020.1.3,Win32,60,,,,,i,1,0.5673,2,media/dknb.png,2,"[-1,1,-1]",5,0,Symb,i,RT,0,0,39,2,5,99,99,i,0.5673,1,4,39,0,39,0,1,,,,,,,
,,,,,,,,,,,,,,,,,,,,3,4,2021-01-11_12h39.10.663,CL_C2S3,2020.1.3,Win32,60,,,,,i,1,0.70738,1,media/dfnb.png,1,"[1,-1,-1]",1,1,Symb,i,RT,0,0,40,2,5,99,99,i,0.70738,1,4,40,0,40,0,1,,,,,,,
,,,,,,,,,,,,,,,,,,,,3,4,2021-01-11_12h39.10.663,CL_C2S3,2020.1.3,Win32,60,,,,,u,1,0.5846,2,media/dknb.png,1,"[1,-1,-1]",2,0,Symb,u,RT,0,0,41,2,5,99,99,u,0.5846,1,4,41,0,41,0,1,,,,,,,
,,,,,,,,,,,,,,,,,,,,3,4,2021-01-11_12h39.10.663,CL_C2S3,2020.1.3,Win32,60,,,,,u,1,0.551065,1,media/dfnb.png,2,"[-1,1,-1]",4,1,Symb,u,RT,0,0,42,2,5,99,99,u,0.551065,1,4,42,0,42,0,1,,,,,,,
,,,,,,,,,,,,,,,,,,,,3,4,2021-01-11_12h39.10.663,CL_C2S3,2020.1.3,Win32,60,,,,,u,1,0.450995,1,media/dfnb.png,2,"[-1,1,-1]",4,1,Symb,u,RT,0,0,43,2,5,99,99,u,0.450995,1,4,43,0,43,0,1,,,,,,,
,,,,,,,,,,,,,,,,,,,,3,4,2021-01-11_12h39.10.663,CL_C2S3,2020.1.3,Win32,60,,,,,i,1,0.55348,1,media/dfnb.png,1,"[1,-1,-1]",1,1,Symb,i,RT,0,0,44,2,5,99,99,i,0.55348,1,4,44,0,44,0,1,,,,,,,
,,,,,,,,,,,,,,,,,,,,3,4,2021-01-11_12h39.10.663,CL_C2S3,2020.1.3,Win32,60,,,,,h,1,0.403755,0,media/dcnb.png,2,"[-1,1,-1]",3,0,Symb,h,RT,0,0,45,2,5,99,99,h,0.403755,1,4,45,0,45,0,1,,,,,,,
