Ctx_Color_List,stim_key_map_ctx1,stim_key_map_ctx2,stim_key_remap_ctx1,stim_key_remap_ctx2,Import_File.thisRepN,Import_File.thisTrialN,Import_File.thisN,Import_File.thisIndex,Import_File.ran,Stim,Ctx_Color,Key,KeyNum,imStim,X_Pos,Y_Pos,Hand,Check,Cross,participant,session,date,expName,psychopyVersion,OS,frameRate,Instr_RT_Old_Press.keys,Instr_RT_Old_Press.rt,Instr_Block_Num_Press.keys,Instr_Block_Num_Press.rt,RT_Press.keys,RT_Press.corr,RT_Press.rt,Symbol,Shape,Ctx,Color,Stim_Num,Key_Num,Stim_Type,True_Key,Block_Type,Remap,Repeat_Count,Trial_Count,Grp,Block_Num,Prep_Time,Ctx_Prep_Time,Actual_Press,RT,Correct,Session,RT_Old_Iter.thisRepN,RT_Old_Iter.thisTrialN,RT_Old_Iter.thisN,RT_Old_Iter.thisIndex,RT_Old_Iter.ran,RT_Old_Block.thisRepN,RT_Old_Block.thisTrialN,RT_Old_Block.thisN,RT_Old_Block.thisIndex,RT_Old_Block.ran,Instr_TR_Old_Press.keys,Instr_TR_Old_Press.rt,TR_Press.keys,TR_Press.corr,TR_Press.rt,TR_Feedback_Old_Bool.thisRepN,TR_Feedback_Old_Bool.thisTrialN,TR_Feedback_Old_Bool.thisN,TR_Feedback_Old_Bool.thisIndex,TR_Feedback_Old_Bool.ran,TR_Old_Iter.thisRepN,TR_Old_Iter.thisTrialN,TR_Old_Iter.thisN,TR_Old_Iter.thisIndex,TR_Old_Iter.ran,TR_Old_Block.thisRepN,TR_Old_Block.thisTrialN,TR_Old_Block.thisN,TR_Old_Block.thisIndex,TR_Old_Block.ran,TR_Penalty_Press.keys,TR_Penalty_Press.rt,TR_Penalty_Old_Bool.thisRepN,TR_Penalty_Old_Bool.thisTrialN,TR_Penalty_Old_Bool.thisN,TR_Penalty_Old_Bool.thisIndex,TR_Penalty_Old_Bool.ran,Instr_End_Exp_Key.keys,Instr_End_Exp_Key.rt
"[[1,-1,-1],[-1,1,-1]]","[0,2,1]","[0,1,2]","[0,1,2]","[0,2,1]",0,0,0,0,1,0,"[1, -1, -1]",h,0,media/dcnb.png,-0.038,0.075,media/hand.png,media/check.png,media/cross.png,3,3,2021-01-10_12h24.04.851,CL_C2S3,2020.1.3,Win32,60,,,,,,,,,,,,,,,,,,,,,,,,,,,,,,,,,,,,,,,,,,,,,,,,,,,,,,,,,,,,,,,,,,
"[[1,-1,-1],[-1,1,-1],[1,-1,-1],[-1,1,-1]]","[0,2,1]","[0,1,2]","[0,1,2]","[0,2,1]",0,1,1,1,1,1,"[-1, 1, -1]",u,1,media/dfnb.png,0.014,0.1,,,,3,3,2021-01-10_12h24.04.851,CL_C2S3,2020.1.3,Win32,60,,,,,,,,,,,,,,,,,,,,,,,,,,,,,,,,,,,,,,,,,,,,,,,,,,,,,,,,,,,,,,,,,,
"[[1,-1,-1],[-1,1,-1],[1,-1,-1],[-1,1,-1],[1,-1,-1],[-1,1,-1]]","[0,2,1]","[0,1,2]","[0,1,2]","[0,2,1]",0,2,2,2,1,2,,i,0,media/dknb.png,0.057,0.08,,,,3,3,2021-01-10_12h24.04.851,CL_C2S3,2020.1.3,Win32,60,,,,,,,,,,,,,,,,,,,,,,,,,,,,,,,,,,,,,,,,,,,,,,,,,,,,,,,,,,,,,,,,,,
,,,,,,,,,,,,,,,,,,,,3,3,2021-01-10_12h24.04.851,CL_C2S3,2020.1.3,Win32,60,h,17.56996,h,1.08643,i,1,0.666115,2,media/dknb.png,2,"[-1,1,-1]",5,0,Symb,i,RT,0,0,0,2,1,99,99,i,0.666115,1,3,0,0,0,0,1,,,,,,,,,,,,,,,,,,,,,,,,,,,,,,,,,,
,,,,,,,,,,,,,,,,,,,,3,3,2021-01-10_12h24.04.851,CL_C2S3,2020.1.3,Win32,60,,,,,u,1,0.55102,1,media/dfnb.png,2,"[-1,1,-1]",4,1,Symb,u,RT,0,0,1,2,1,99,99,u,0.55102,1,3,1,0,1,0,1,,,,,,,,,,,,,,,,,,,,,,,,,,,,,,,,,,
,,,,,,,,,,,,,,,,,,,,3,3,2021-01-10_12h24.04.851,CL_C2S3,2020.1.3,Win32,60,,,,,i,1,0.611605,1,media/dfnb.png,1,"[1,-1,-1]",1,1,Symb,i,RT,0,0,2,2,1,99,99,i,0.611605,1,3,2,0,2,0,1,,,,,,,,,,,,,,,,,,,,,,,,,,,,,,,,,,
,,,,,,,,,,,,,,,,,,,,3,3,2021-01-10_12h24.04.851,CL_C2S3,2020.1.3,Win32,60,,,,,u,1,0.651825,2,media/dknb.png,1,"[1,-1,-1]",2,0,Symb,u,RT,0,0,3,2,1,99,99,u,0.651825,1,3,3,0,3,0,1,,,,,,,,,,,,,,,,,,,,,,,,,,,,,,,,,,
,,,,,,,,,,,,,,,,,,,,3,3,2021-01-10_12h24.04.851,CL_C2S3,2020.1.3,Win32,60,,,,,i,1,0.517825,2,media/dknb.png,2,"[-1,1,-1]",5,0,Symb,i,RT,0,0,4,2,1,99,99,i,0.517825,1,3,4,0,4,0,1,,,,,,,,,,,,,,,,,,,,,,,,,,,,,,,,,,
,,,,,,,,,,,,,,,,,,,,3,3,2021-01-10_12h24.04.851,CL_C2S3,2020.1.3,Win32,60,,,,,u,1,0.785145,2,media/dknb.png,1,"[1,-1,-1]",2,0,Symb,u,RT,0,0,5,2,1,99,99,u,0.785145,1,3,5,0,5,0,1,,,,,,,,,,,,,,,,,,,,,,,,,,,,,,,,,,
,,,,,,,,,,,,,,,,,,,,3,3,2021-01-10_12h24.04.851,CL_C2S3,2020.1.3,Win32,60,,,,,h,1,0.601345,0,media/dcnb.png,2,"[-1,1,-1]",3,0,Symb,h,RT,0,0,6,2,1,99,99,h,0.601345,1,3,6,0,6,0,1,,,,,,,,,,,,,,,,,,,,,,,,,,,,,,,,,,
,,,,,,,,,,,,,,,,,,,,3,3,2021-01-10_12h24.04.851,CL_C2S3,2020.1.3,Win32,60,,,,,h,1,0.390215,0,media/dcnb.png,1,"[1,-1,-1]",0,0,Symb,h,RT,0,0,7,2,1,99,99,h,0.390215,1,3,7,0,7,0,1,,,,,,,,,,,,,,,,,,,,,,,,,,,,,,,,,,
,,,,,,,,,,,,,,,,,,,,3,3,2021-01-10_12h24.04.851,CL_C2S3,2020.1.3,Win32,60,,,,,h,1,0.491845,0,media/dcnb.png,2,"[-1,1,-1]",3,0,Symb,h,RT,0,0,8,2,1,99,99,h,0.491845,1,3,8,0,8,0,1,,,,,,,,,,,,,,,,,,,,,,,,,,,,,,,,,,
,,,,,,,,,,,,,,,,,,,,3,3,2021-01-10_12h24.04.851,CL_C2S3,2020.1.3,Win32,60,,,,,h,1,0.401595,0,media/dcnb.png,1,"[1,-1,-1]",0,0,Symb,h,RT,0,0,9,2,1,99,99,h,0.401595,1,3,9,0,9,0,1,,,,,,,,,,,,,,,,,,,,,,,,,,,,,,,,,,
,,,,,,,,,,,,,,,,,,,,3,3,2021-01-10_12h24.04.851,CL_C2S3,2020.1.3,Win32,60,,,,,u,1,0.546785,1,media/dfnb.png,2,"[-1,1,-1]",4,1,Symb,u,RT,0,0,10,2,1,99,99,u,0.546785,1,3,10,0,10,0,1,,,,,,,,,,,,,,,,,,,,,,,,,,,,,,,,,,
,,,,,,,,,,,,,,,,,,,,3,3,2021-01-10_12h24.04.851,CL_C2S3,2020.1.3,Win32,60,,,,,i,1,0.648205,1,media/dfnb.png,1,"[1,-1,-1]",1,1,Symb,i,RT,0,0,11,2,1,99,99,i,0.648205,1,3,11,0,11,0,1,,,,,,,,,,,,,,,,,,,,,,,,,,,,,,,,,,
,,,,,,,,,,,,,,,,,,,,3,3,2021-01-10_12h24.04.851,CL_C2S3,2020.1.3,Win32,60,,,,,h,1,0.53217,0,media/dcnb.png,2,"[-1,1,-1]",3,0,Symb,h,RT,0,0,12,2,1,99,99,h,0.53217,1,3,12,0,12,0,1,,,,,,,,,,,,,,,,,,,,,,,,,,,,,,,,,,
,,,,,,,,,,,,,,,,,,,,3,3,2021-01-10_12h24.04.851,CL_C2S3,2020.1.3,Win32,60,,,,,h,1,0.660275,0,media/dcnb.png,1,"[1,-1,-1]",0,0,Symb,h,RT,0,0,13,2,1,99,99,h,0.660275,1,3,13,0,13,0,1,,,,,,,,,,,,,,,,,,,,,,,,,,,,,,,,,,
,,,,,,,,,,,,,,,,,,,,3,3,2021-01-10_12h24.04.851,CL_C2S3,2020.1.3,Win32,60,,,,,u,1,0.663175,2,media/dknb.png,1,"[1,-1,-1]",2,0,Symb,u,RT,0,0,14,2,1,99,99,u,0.663175,1,3,14,0,14,0,1,,,,,,,,,,,,,,,,,,,,,,,,,,,,,,,,,,
,,,,,,,,,,,,,,,,,,,,3,3,2021-01-10_12h24.04.851,CL_C2S3,2020.1.3,Win32,60,,,,,h,1,0.493785,0,media/dcnb.png,1,"[1,-1,-1]",0,0,Symb,h,RT,0,0,15,2,1,99,99,h,0.493785,1,3,15,0,15,0,1,,,,,,,,,,,,,,,,,,,,,,,,,,,,,,,,,,
,,,,,,,,,,,,,,,,,,,,3,3,2021-01-10_12h24.04.851,CL_C2S3,2020.1.3,Win32,60,,,,,u,1,0.51773,1,media/dfnb.png,2,"[-1,1,-1]",4,1,Symb,u,RT,0,0,16,2,1,99,99,u,0.51773,1,3,16,0,16,0,1,,,,,,,,,,,,,,,,,,,,,,,,,,,,,,,,,,
,,,,,,,,,,,,,,,,,,,,3,3,2021-01-10_12h24.04.851,CL_C2S3,2020.1.3,Win32,60,,,,,i,1,0.45258,2,media/dknb.png,2,"[-1,1,-1]",5,0,Symb,i,RT,0,0,17,2,1,99,99,i,0.45258,1,3,17,0,17,0,1,,,,,,,,,,,,,,,,,,,,,,,,,,,,,,,,,,
,,,,,,,,,,,,,,,,,,,,3,3,2021-01-10_12h24.04.851,CL_C2S3,2020.1.3,Win32,60,,,,,h,1,0.56769,0,media/dcnb.png,2,"[-1,1,-1]",3,0,Symb,h,RT,0,0,18,2,1,99,99,h,0.56769,1,3,18,0,18,0,1,,,,,,,,,,,,,,,,,,,,,,,,,,,,,,,,,,
,,,,,,,,,,,,,,,,,,,,3,3,2021-01-10_12h24.04.851,CL_C2S3,2020.1.3,Win32,60,,,,,u,0,0.501015,1,media/dfnb.png,1,"[1,-1,-1]",1,1,Symb,i,RT,0,0,19,2,1,99,99,u,0.501015,0,3,19,0,19,0,1,,,,,,,,,,,,,,,,,,,,,,,,,,,,,,,,,,
,,,,,,,,,,,,,,,,,,,,3,3,2021-01-10_12h24.04.851,CL_C2S3,2020.1.3,Win32,60,,,,,i,1,0.500985,2,media/dknb.png,2,"[-1,1,-1]",5,0,Symb,i,RT,0,0,20,2,1,99,99,i,0.500985,1,3,20,0,20,0,1,,,,,,,,,,,,,,,,,,,,,,,,,,,,,,,,,,
,,,,,,,,,,,,,,,,,,,,3,3,2021-01-10_12h24.04.851,CL_C2S3,2020.1.3,Win32,60,,,,,u,1,0.517585,1,media/dfnb.png,2,"[-1,1,-1]",4,1,Symb,u,RT,0,0,21,2,1,99,99,u,0.517585,1,3,21,0,21,0,1,,,,,,,,,,,,,,,,,,,,,,,,,,,,,,,,,,
,,,,,,,,,,,,,,,,,,,,3,3,2021-01-10_12h24.04.851,CL_C2S3,2020.1.3,Win32,60,,,,,i,1,0.604105,1,media/dfnb.png,1,"[1,-1,-1]",1,1,Symb,i,RT,0,0,22,2,1,99,99,i,0.604105,1,3,22,0,22,0,1,,,,,,,,,,,,,,,,,,,,,,,,,,,,,,,,,,
,,,,,,,,,,,,,,,,,,,,3,3,2021-01-10_12h24.04.851,CL_C2S3,2020.1.3,Win32,60,,,,,u,1,0.651745,2,media/dknb.png,1,"[1,-1,-1]",2,0,Symb,u,RT,0,0,23,2,1,99,99,u,0.651745,1,3,23,0,23,0,1,,,,,,,,,,,,,,,,,,,,,,,,,,,,,,,,,,
,,,,,,,,,,,,,,,,,,,,3,3,2021-01-10_12h24.04.851,CL_C2S3,2020.1.3,Win32,60,,,,,u,1,0.73657,1,media/dfnb.png,2,"[-1,1,-1]",4,1,Symb,u,RT,0,0,24,2,1,99,99,u,0.73657,1,3,24,0,24,0,1,,,,,,,,,,,,,,,,,,,,,,,,,,,,,,,,,,
,,,,,,,,,,,,,,,,,,,,3,3,2021-01-10_12h24.04.851,CL_C2S3,2020.1.3,Win32,60,,,,,i,1,0.567875,1,media/dfnb.png,1,"[1,-1,-1]",1,1,Symb,i,RT,0,0,25,2,1,99,99,i,0.567875,1,3,25,0,25,0,1,,,,,,,,,,,,,,,,,,,,,,,,,,,,,,,,,,
,,,,,,,,,,,,,,,,,,,,3,3,2021-01-10_12h24.04.851,CL_C2S3,2020.1.3,Win32,60,,,,,h,1,0.46907,0,media/dcnb.png,1,"[1,-1,-1]",0,0,Symb,h,RT,0,0,26,2,1,99,99,h,0.46907,1,3,26,0,26,0,1,,,,,,,,,,,,,,,,,,,,,,,,,,,,,,,,,,
,,,,,,,,,,,,,,,,,,,,3,3,2021-01-10_12h24.04.851,CL_C2S3,2020.1.3,Win32,60,,,,,u,1,0.821935,2,media/dknb.png,1,"[1,-1,-1]",2,0,Symb,u,RT,0,0,27,2,1,99,99,u,0.821935,1,3,27,0,27,0,1,,,,,,,,,,,,,,,,,,,,,,,,,,,,,,,,,,
,,,,,,,,,,,,,,,,,,,,3,3,2021-01-10_12h24.04.851,CL_C2S3,2020.1.3,Win32,60,,,,,h,1,0.61787,0,media/dcnb.png,2,"[-1,1,-1]",3,0,Symb,h,RT,0,0,28,2,1,99,99,h,0.61787,1,3,28,0,28,0,1,,,,,,,,,,,,,,,,,,,,,,,,,,,,,,,,,,
,,,,,,,,,,,,,,,,,,,,3,3,2021-01-10_12h24.04.851,CL_C2S3,2020.1.3,Win32,60,,,,,i,1,0.72131,2,media/dknb.png,2,"[-1,1,-1]",5,0,Symb,i,RT,0,0,29,2,1,99,99,i,0.72131,1,3,29,0,29,0,1,,,,,,,,,,,,,,,,,,,,,,,,,,,,,,,,,,
,,,,,,,,,,,,,,,,,,,,3,3,2021-01-10_12h24.04.851,CL_C2S3,2020.1.3,Win32,60,,,,,h,1,0.55377,0,media/dcnb.png,1,"[1,-1,-1]",0,0,Symb,h,RT,0,0,30,2,1,99,99,h,0.55377,1,3,30,0,30,0,1,,,,,,,,,,,,,,,,,,,,,,,,,,,,,,,,,,
,,,,,,,,,,,,,,,,,,,,3,3,2021-01-10_12h24.04.851,CL_C2S3,2020.1.3,Win32,60,,,,,u,1,0.553765,1,media/dfnb.png,2,"[-1,1,-1]",4,1,Symb,u,RT,0,0,31,2,1,99,99,u,0.553765,1,3,31,0,31,0,1,,,,,,,,,,,,,,,,,,,,,,,,,,,,,,,,,,
,,,,,,,,,,,,,,,,,,,,3,3,2021-01-10_12h24.04.851,CL_C2S3,2020.1.3,Win32,60,,,,,u,1,0.680675,2,media/dknb.png,1,"[1,-1,-1]",2,0,Symb,u,RT,0,0,32,2,1,99,99,u,0.680675,1,3,32,0,32,0,1,,,,,,,,,,,,,,,,,,,,,,,,,,,,,,,,,,
,,,,,,,,,,,,,,,,,,,,3,3,2021-01-10_12h24.04.851,CL_C2S3,2020.1.3,Win32,60,,,,,h,1,0.504565,0,media/dcnb.png,2,"[-1,1,-1]",3,0,Symb,h,RT,0,0,33,2,1,99,99,h,0.504565,1,3,33,0,33,0,1,,,,,,,,,,,,,,,,,,,,,,,,,,,,,,,,,,
,,,,,,,,,,,,,,,,,,,,3,3,2021-01-10_12h24.04.851,CL_C2S3,2020.1.3,Win32,60,,,,,i,1,0.78188,1,media/dfnb.png,1,"[1,-1,-1]",1,1,Symb,i,RT,0,0,34,2,1,99,99,i,0.78188,1,3,34,0,34,0,1,,,,,,,,,,,,,,,,,,,,,,,,,,,,,,,,,,
,,,,,,,,,,,,,,,,,,,,3,3,2021-01-10_12h24.04.851,CL_C2S3,2020.1.3,Win32,60,,,,,i,1,0.568615,2,media/dknb.png,2,"[-1,1,-1]",5,0,Symb,i,RT,0,0,35,2,1,99,99,i,0.568615,1,3,35,0,35,0,1,,,,,,,,,,,,,,,,,,,,,,,,,,,,,,,,,,
,,,,,,,,,,,,,,,,,,,,3,3,2021-01-10_12h24.04.851,CL_C2S3,2020.1.3,Win32,60,,,,,i,1,0.751005,2,media/dknb.png,2,"[-1,1,-1]",5,0,Symb,i,RT,0,0,36,2,1,99,99,i,0.751005,1,3,36,0,36,0,1,,,,,,,,,,,,,,,,,,,,,,,,,,,,,,,,,,
,,,,,,,,,,,,,,,,,,,,3,3,2021-01-10_12h24.04.851,CL_C2S3,2020.1.3,Win32,60,,,,,u,0,0.501005,1,media/dfnb.png,1,"[1,-1,-1]",1,1,Symb,i,RT,0,0,37,2,1,99,99,u,0.501005,0,3,37,0,37,0,1,,,,,,,,,,,,,,,,,,,,,,,,,,,,,,,,,,
,,,,,,,,,,,,,,,,,,,,3,3,2021-01-10_12h24.04.851,CL_C2S3,2020.1.3,Win32,60,,,,,h,1,0.450885,0,media/dcnb.png,1,"[1,-1,-1]",0,0,Symb,h,RT,0,0,38,2,1,99,99,h,0.450885,1,3,38,0,38,0,1,,,,,,,,,,,,,,,,,,,,,,,,,,,,,,,,,,
,,,,,,,,,,,,,,,,,,,,3,3,2021-01-10_12h24.04.851,CL_C2S3,2020.1.3,Win32,60,,,,,u,1,0.884475,2,media/dknb.png,1,"[1,-1,-1]",2,0,Symb,u,RT,0,0,39,2,1,99,99,u,0.884475,1,3,39,0,39,0,1,,,,,,,,,,,,,,,,,,,,,,,,,,,,,,,,,,
,,,,,,,,,,,,,,,,,,,,3,3,2021-01-10_12h24.04.851,CL_C2S3,2020.1.3,Win32,60,,,,,u,1,0.58444,1,media/dfnb.png,2,"[-1,1,-1]",4,1,Symb,u,RT,0,0,40,2,1,99,99,u,0.58444,1,3,40,0,40,0,1,,,,,,,,,,,,,,,,,,,,,,,,,,,,,,,,,,
,,,,,,,,,,,,,,,,,,,,3,3,2021-01-10_12h24.04.851,CL_C2S3,2020.1.3,Win32,60,,,,,h,1,0.534465,0,media/dcnb.png,2,"[-1,1,-1]",3,0,Symb,h,RT,0,0,41,2,1,99,99,h,0.534465,1,3,41,0,41,0,1,,,,,,,,,,,,,,,,,,,,,,,,,,,,,,,,,,
,,,,,,,,,,,,,,,,,,,,3,3,2021-01-10_12h24.04.851,CL_C2S3,2020.1.3,Win32,60,,,,,h,1,0.48441,0,media/dcnb.png,1,"[1,-1,-1]",0,0,Symb,h,RT,0,0,42,2,1,99,99,h,0.48441,1,3,42,0,42,0,1,,,,,,,,,,,,,,,,,,,,,,,,,,,,,,,,,,
,,,,,,,,,,,,,,,,,,,,3,3,2021-01-10_12h24.04.851,CL_C2S3,2020.1.3,Win32,60,,,,,i,1,0.617825,2,media/dknb.png,2,"[-1,1,-1]",5,0,Symb,i,RT,0,0,43,2,1,99,99,i,0.617825,1,3,43,0,43,0,1,,,,,,,,,,,,,,,,,,,,,,,,,,,,,,,,,,
,,,,,,,,,,,,,,,,,,,,3,3,2021-01-10_12h24.04.851,CL_C2S3,2020.1.3,Win32,60,,,,,h,1,0.634395,0,media/dcnb.png,2,"[-1,1,-1]",3,0,Symb,h,RT,0,0,44,2,1,99,99,h,0.634395,1,3,44,0,44,0,1,,,,,,,,,,,,,,,,,,,,,,,,,,,,,,,,,,
,,,,,,,,,,,,,,,,,,,,3,3,2021-01-10_12h24.04.851,CL_C2S3,2020.1.3,Win32,60,,,,,u,1,0.56744,2,media/dknb.png,1,"[1,-1,-1]",2,0,Symb,u,RT,0,0,45,2,1,99,99,u,0.56744,1,3,45,0,45,0,1,,,,,,,,,,,,,,,,,,,,,,,,,,,,,,,,,,
,,,,,,,,,,,,,,,,,,,,3,3,2021-01-10_12h24.04.851,CL_C2S3,2020.1.3,Win32,60,,,,,h,1,0.534325,0,media/dcnb.png,2,"[-1,1,-1]",3,0,Symb,h,RT,0,0,46,2,1,99,99,h,0.534325,1,3,46,0,46,0,1,,,,,,,,,,,,,,,,,,,,,,,,,,,,,,,,,,
,,,,,,,,,,,,,,,,,,,,3,3,2021-01-10_12h24.04.851,CL_C2S3,2020.1.3,Win32,60,,,,,i,1,0.551115,2,media/dknb.png,2,"[-1,1,-1]",5,0,Symb,i,RT,0,0,47,2,1,99,99,i,0.551115,1,3,47,0,47,0,1,,,,,,,,,,,,,,,,,,,,,,,,,,,,,,,,,,
,,,,,,,,,,,,,,,,,,,,3,3,2021-01-10_12h24.04.851,CL_C2S3,2020.1.3,Win32,60,,,,,u,0,1.101145,1,media/dfnb.png,1,"[1,-1,-1]",1,1,Symb,i,RT,0,0,48,2,1,99,99,u,1.101145,0,3,48,0,48,0,1,,,,,,,,,,,,,,,,,,,,,,,,,,,,,,,,,,
,,,,,,,,,,,,,,,,,,,,3,3,2021-01-10_12h24.04.851,CL_C2S3,2020.1.3,Win32,60,,,,,u,1,0.567435,1,media/dfnb.png,2,"[-1,1,-1]",4,1,Symb,u,RT,0,0,49,2,1,99,99,u,0.567435,1,3,49,0,49,0,1,,,,,,,,,,,,,,,,,,,,,,,,,,,,,,,,,,
,,,,,,,,,,,,,,,,,,,,3,3,2021-01-10_12h24.04.851,CL_C2S3,2020.1.3,Win32,60,,,,,h,1,0.43464,0,media/dcnb.png,1,"[1,-1,-1]",0,0,Symb,h,RT,0,0,50,2,1,99,99,h,0.43464,1,3,50,0,50,0,1,,,,,,,,,,,,,,,,,,,,,,,,,,,,,,,,,,
,,,,,,,,,,,,,,,,,,,,3,3,2021-01-10_12h24.04.851,CL_C2S3,2020.1.3,Win32,60,,,,,u,1,0.75122,2,media/dknb.png,1,"[1,-1,-1]",2,0,Symb,u,RT,0,0,51,2,1,99,99,u,0.75122,1,3,51,0,51,0,1,,,,,,,,,,,,,,,,,,,,,,,,,,,,,,,,,,
,,,,,,,,,,,,,,,,,,,,3,3,2021-01-10_12h24.04.851,CL_C2S3,2020.1.3,Win32,60,,,,,u,1,0.78431,1,media/dfnb.png,2,"[-1,1,-1]",4,1,Symb,u,RT,0,0,52,2,1,99,99,u,0.78431,1,3,52,0,52,0,1,,,,,,,,,,,,,,,,,,,,,,,,,,,,,,,,,,
,,,,,,,,,,,,,,,,,,,,3,3,2021-01-10_12h24.04.851,CL_C2S3,2020.1.3,Win32,60,,,,,i,1,0.66763,1,media/dfnb.png,1,"[1,-1,-1]",1,1,Symb,i,RT,0,0,53,2,1,99,99,i,0.66763,1,3,53,0,53,0,1,,,,,,,,,,,,,,,,,,,,,,,,,,,,,,,,,,
,,,,,,,,,,,,,,,,,,,,3,3,2021-01-10_12h24.04.851,CL_C2S3,2020.1.3,Win32,60,,,,,i,1,0.6175,2,media/dknb.png,2,"[-1,1,-1]",5,0,Symb,i,RT,0,0,54,2,1,99,99,i,0.6175,1,3,54,0,54,0,1,,,,,,,,,,,,,,,,,,,,,,,,,,,,,,,,,,
,,,,,,,,,,,,,,,,,,,,3,3,2021-01-10_12h24.04.851,CL_C2S3,2020.1.3,Win32,60,,,,,h,1,0.484165,0,media/dcnb.png,1,"[1,-1,-1]",0,0,Symb,h,RT,0,0,55,2,1,99,99,h,0.484165,1,3,55,0,55,0,1,,,,,,,,,,,,,,,,,,,,,,,,,,,,,,,,,,
,,,,,,,,,,,,,,,,,,,,3,3,2021-01-10_12h24.04.851,CL_C2S3,2020.1.3,Win32,60,,,,,u,1,0.57305,1,media/dfnb.png,2,"[-1,1,-1]",4,1,Symb,u,RT,0,0,56,2,1,99,99,u,0.57305,1,3,56,0,56,0,1,,,,,,,,,,,,,,,,,,,,,,,,,,,,,,,,,,
,,,,,,,,,,,,,,,,,,,,3,3,2021-01-10_12h24.04.851,CL_C2S3,2020.1.3,Win32,60,,,,,u,1,0.686105,2,media/dknb.png,1,"[1,-1,-1]",2,0,Symb,u,RT,0,0,57,2,1,99,99,u,0.686105,1,3,57,0,57,0,1,,,,,,,,,,,,,,,,,,,,,,,,,,,,,,,,,,
,,,,,,,,,,,,,,,,,,,,3,3,2021-01-10_12h24.04.851,CL_C2S3,2020.1.3,Win32,60,,,,,h,1,0.601535,0,media/dcnb.png,2,"[-1,1,-1]",3,0,Symb,h,RT,0,0,58,2,1,99,99,h,0.601535,1,3,58,0,58,0,1,,,,,,,,,,,,,,,,,,,,,,,,,,,,,,,,,,
,,,,,,,,,,,,,,,,,,,,3,3,2021-01-10_12h24.04.851,CL_C2S3,2020.1.3,Win32,60,,,,,i,1,2.26833,1,media/dfnb.png,1,"[1,-1,-1]",1,1,Symb,i,RT,0,0,59,2,1,99,99,i,2.26833,1,3,59,0,59,0,1,,,,,,,,,,,,,,,,,,,,,,,,,,,,,,,,,,
,,,,,,,,,,,,,,,,,,,,3,3,2021-01-10_12h24.04.851,CL_C2S3,2020.1.3,Win32,60,,,,,h,1,0.49863,0,media/dcnb.png,1,"[1,-1,-1]",0,0,Symb,h,RT,0,0,60,2,1,99,99,h,0.49863,1,3,60,0,60,0,1,,,,,,,,,,,,,,,,,,,,,,,,,,,,,,,,,,
,,,,,,,,,,,,,,,,,,,,3,3,2021-01-10_12h24.04.851,CL_C2S3,2020.1.3,Win32,60,,,,,u,1,0.52031,1,media/dfnb.png,2,"[-1,1,-1]",4,1,Symb,u,RT,0,0,61,2,1,99,99,u,0.52031,1,3,61,0,61,0,1,,,,,,,,,,,,,,,,,,,,,,,,,,,,,,,,,,
,,,,,,,,,,,,,,,,,,,,3,3,2021-01-10_12h24.04.851,CL_C2S3,2020.1.3,Win32,60,,,,,u,1,0.61799,2,media/dknb.png,1,"[1,-1,-1]",2,0,Symb,u,RT,0,0,62,2,1,99,99,u,0.61799,1,3,62,0,62,0,1,,,,,,,,,,,,,,,,,,,,,,,,,,,,,,,,,,
,,,,,,,,,,,,,,,,,,,,3,3,2021-01-10_12h24.04.851,CL_C2S3,2020.1.3,Win32,60,,,,,u,1,0.43798,2,media/dknb.png,1,"[1,-1,-1]",2,0,Symb,u,RT,0,0,63,2,1,99,99,u,0.43798,1,3,63,0,63,0,1,,,,,,,,,,,,,,,,,,,,,,,,,,,,,,,,,,
,,,,,,,,,,,,,,,,,,,,3,3,2021-01-10_12h24.04.851,CL_C2S3,2020.1.3,Win32,60,,,,,h,1,0.522065,0,media/dcnb.png,2,"[-1,1,-1]",3,0,Symb,h,RT,0,0,64,2,1,99,99,h,0.522065,1,3,64,0,64,0,1,,,,,,,,,,,,,,,,,,,,,,,,,,,,,,,,,,
,,,,,,,,,,,,,,,,,,,,3,3,2021-01-10_12h24.04.851,CL_C2S3,2020.1.3,Win32,60,,,,,h,0,0.40821,2,media/dknb.png,2,"[-1,1,-1]",5,0,Symb,i,RT,0,0,65,2,1,99,99,h,0.40821,0,3,65,0,65,0,1,,,,,,,,,,,,,,,,,,,,,,,,,,,,,,,,,,
,,,,,,,,,,,,,,,,,,,,3,3,2021-01-10_12h24.04.851,CL_C2S3,2020.1.3,Win32,60,,,,,i,1,0.98773,1,media/dfnb.png,1,"[1,-1,-1]",1,1,Symb,i,RT,0,0,66,2,1,99,99,i,0.98773,1,3,66,0,66,0,1,,,,,,,,,,,,,,,,,,,,,,,,,,,,,,,,,,
,,,,,,,,,,,,,,,,,,,,3,3,2021-01-10_12h24.04.851,CL_C2S3,2020.1.3,Win32,60,,,,,i,1,0.619805,1,media/dfnb.png,1,"[1,-1,-1]",1,1,Symb,i,RT,0,0,67,2,1,99,99,i,0.619805,1,3,67,0,67,0,1,,,,,,,,,,,,,,,,,,,,,,,,,,,,,,,,,,
,,,,,,,,,,,,,,,,,,,,3,3,2021-01-10_12h24.04.851,CL_C2S3,2020.1.3,Win32,60,,,,,u,1,0.62042,1,media/dfnb.png,2,"[-1,1,-1]",4,1,Symb,u,RT,0,0,68,2,1,99,99,u,0.62042,1,3,68,0,68,0,1,,,,,,,,,,,,,,,,,,,,,,,,,,,,,,,,,,
,,,,,,,,,,,,,,,,,,,,3,3,2021-01-10_12h24.04.851,CL_C2S3,2020.1.3,Win32,60,,,,,h,1,0.485995,0,media/dcnb.png,1,"[1,-1,-1]",0,0,Symb,h,RT,0,0,69,2,1,99,99,h,0.485995,1,3,69,0,69,0,1,,,,,,,,,,,,,,,,,,,,,,,,,,,,,,,,,,
,,,,,,,,,,,,,,,,,,,,3,3,2021-01-10_12h24.04.851,CL_C2S3,2020.1.3,Win32,60,,,,,h,1,0.403315,0,media/dcnb.png,2,"[-1,1,-1]",3,0,Symb,h,RT,0,0,70,2,1,99,99,h,0.403315,1,3,70,0,70,0,1,,,,,,,,,,,,,,,,,,,,,,,,,,,,,,,,,,
,,,,,,,,,,,,,,,,,,,,3,3,2021-01-10_12h24.04.851,CL_C2S3,2020.1.3,Win32,60,,,,,i,1,0.56882,2,media/dknb.png,2,"[-1,1,-1]",5,0,Symb,i,RT,0,0,71,2,1,99,99,i,0.56882,1,3,71,0,71,0,1,,,,,,,,,,,,,,,,,,,,,,,,,,,,,,,,,,
,,,,,,,,,,,,,,,,,,,,3,3,2021-01-10_12h24.04.851,CL_C2S3,2020.1.3,Win32,60,,,,,u,1,0.585275,1,media/dfnb.png,2,"[-1,1,-1]",4,1,Symb,u,RT,0,0,72,2,1,99,99,u,0.585275,1,3,72,0,72,0,1,,,,,,,,,,,,,,,,,,,,,,,,,,,,,,,,,,
,,,,,,,,,,,,,,,,,,,,3,3,2021-01-10_12h24.04.851,CL_C2S3,2020.1.3,Win32,60,,,,,i,1,0.634895,1,media/dfnb.png,1,"[1,-1,-1]",1,1,Symb,i,RT,0,0,73,2,1,99,99,i,0.634895,1,3,73,0,73,0,1,,,,,,,,,,,,,,,,,,,,,,,,,,,,,,,,,,
,,,,,,,,,,,,,,,,,,,,3,3,2021-01-10_12h24.04.851,CL_C2S3,2020.1.3,Win32,60,,,,,i,1,0.552045,1,media/dfnb.png,1,"[1,-1,-1]",1,1,Symb,i,RT,0,0,74,2,1,99,99,i,0.552045,1,3,74,0,74,0,1,,,,,,,,,,,,,,,,,,,,,,,,,,,,,,,,,,
,,,,,,,,,,,,,,,,,,,,3,3,2021-01-10_12h24.04.851,CL_C2S3,2020.1.3,Win32,60,,,,,h,1,0.486005,0,media/dcnb.png,1,"[1,-1,-1]",0,0,Symb,h,RT,0,0,75,2,1,99,99,h,0.486005,1,3,75,0,75,0,1,,,,,,,,,,,,,,,,,,,,,,,,,,,,,,,,,,
,,,,,,,,,,,,,,,,,,,,3,3,2021-01-10_12h24.04.851,CL_C2S3,2020.1.3,Win32,60,,,,,u,1,0.649255,2,media/dknb.png,1,"[1,-1,-1]",2,0,Symb,u,RT,0,0,76,2,1,99,99,u,0.649255,1,3,76,0,76,0,1,,,,,,,,,,,,,,,,,,,,,,,,,,,,,,,,,,
,,,,,,,,,,,,,,,,,,,,3,3,2021-01-10_12h24.04.851,CL_C2S3,2020.1.3,Win32,60,,,,,u,1,1.00231,2,media/dknb.png,1,"[1,-1,-1]",2,0,Symb,u,RT,0,0,77,2,1,99,99,u,1.00231,1,3,77,0,77,0,1,,,,,,,,,,,,,,,,,,,,,,,,,,,,,,,,,,
,,,,,,,,,,,,,,,,,,,,3,3,2021-01-10_12h24.04.851,CL_C2S3,2020.1.3,Win32,60,,,,,u,1,0.584225,1,media/dfnb.png,2,"[-1,1,-1]",4,1,Symb,u,RT,0,0,78,2,1,99,99,u,0.584225,1,3,78,0,78,0,1,,,,,,,,,,,,,,,,,,,,,,,,,,,,,,,,,,
,,,,,,,,,,,,,,,,,,,,3,3,2021-01-10_12h24.04.851,CL_C2S3,2020.1.3,Win32,60,,,,,h,1,0.405025,0,media/dcnb.png,2,"[-1,1,-1]",3,0,Symb,h,RT,0,0,79,2,1,99,99,h,0.405025,1,3,79,0,79,0,1,,,,,,,,,,,,,,,,,,,,,,,,,,,,,,,,,,
,,,,,,,,,,,,,,,,,,,,3,3,2021-01-10_12h24.04.851,CL_C2S3,2020.1.3,Win32,60,,,,,i,1,0.6515,2,media/dknb.png,2,"[-1,1,-1]",5,0,Symb,i,RT,0,0,80,2,1,99,99,i,0.6515,1,3,80,0,80,0,1,,,,,,,,,,,,,,,,,,,,,,,,,,,,,,,,,,
,,,,,,,,,,,,,,,,,,,,3,3,2021-01-10_12h24.04.851,CL_C2S3,2020.1.3,Win32,60,,,,,h,1,0.58831,0,media/dcnb.png,1,"[1,-1,-1]",0,0,Symb,h,RT,0,0,81,2,1,99,99,h,0.58831,1,3,81,0,81,0,1,,,,,,,,,,,,,,,,,,,,,,,,,,,,,,,,,,
,,,,,,,,,,,,,,,,,,,,3,3,2021-01-10_12h24.04.851,CL_C2S3,2020.1.3,Win32,60,,,,,i,1,0.636585,2,media/dknb.png,2,"[-1,1,-1]",5,0,Symb,i,RT,0,0,82,2,1,99,99,i,0.636585,1,3,82,0,82,0,1,,,,,,,,,,,,,,,,,,,,,,,,,,,,,,,,,,
,,,,,,,,,,,,,,,,,,,,3,3,2021-01-10_12h24.04.851,CL_C2S3,2020.1.3,Win32,60,,,,,h,1,0.554115,0,media/dcnb.png,2,"[-1,1,-1]",3,0,Symb,h,RT,0,0,83,2,1,99,99,h,0.554115,1,3,83,0,83,0,1,,,,,,,,,,,,,,,,,,,,,,,,,,,,,,,,,,
,,,,,,,,,,,,,,,,,,,,3,3,2021-01-10_12h24.04.851,CL_C2S3,2020.1.3,Win32,60,,,,,u,1,0.61844,1,media/dfnb.png,2,"[-1,1,-1]",4,1,Symb,u,RT,0,0,84,2,1,99,99,u,0.61844,1,3,84,0,84,0,1,,,,,,,,,,,,,,,,,,,,,,,,,,,,,,,,,,
,,,,,,,,,,,,,,,,,,,,3,3,2021-01-10_12h24.04.851,CL_C2S3,2020.1.3,Win32,60,,,,,i,1,0.502295,1,media/dfnb.png,1,"[1,-1,-1]",1,1,Symb,i,RT,0,0,85,2,1,99,99,i,0.502295,1,3,85,0,85,0,1,,,,,,,,,,,,,,,,,,,,,,,,,,,,,,,,,,
,,,,,,,,,,,,,,,,,,,,3,3,2021-01-10_12h24.04.851,CL_C2S3,2020.1.3,Win32,60,,,,,h,1,0.53576,0,media/dcnb.png,1,"[1,-1,-1]",0,0,Symb,h,RT,0,0,86,2,1,99,99,h,0.53576,1,3,86,0,86,0,1,,,,,,,,,,,,,,,,,,,,,,,,,,,,,,,,,,
,,,,,,,,,,,,,,,,,,,,3,3,2021-01-10_12h24.04.851,CL_C2S3,2020.1.3,Win32,60,,,,,h,1,0.504225,0,media/dcnb.png,2,"[-1,1,-1]",3,0,Symb,h,RT,0,0,87,2,1,99,99,h,0.504225,1,3,87,0,87,0,1,,,,,,,,,,,,,,,,,,,,,,,,,,,,,,,,,,
,,,,,,,,,,,,,,,,,,,,3,3,2021-01-10_12h24.04.851,CL_C2S3,2020.1.3,Win32,60,,,,,u,1,0.985265,2,media/dknb.png,1,"[1,-1,-1]",2,0,Symb,u,RT,0,0,88,2,1,99,99,u,0.985265,1,3,88,0,88,0,1,,,,,,,,,,,,,,,,,,,,,,,,,,,,,,,,,,
,,,,,,,,,,,,,,,,,,,,3,3,2021-01-10_12h24.04.851,CL_C2S3,2020.1.3,Win32,60,,,,,i,1,0.584395,2,media/dknb.png,2,"[-1,1,-1]",5,0,Symb,i,RT,0,0,89,2,1,99,99,i,0.584395,1,3,89,0,89,0,1,,,,,,,,,,,,,,,,,,,,,,,,,,,,,,,,,,
,,,,,,,,,,,,,,,,,,,,3,3,2021-01-10_12h24.04.851,CL_C2S3,2020.1.3,Win32,60,,,,,u,1,0.534985,2,media/dknb.png,1,"[1,-1,-1]",2,0,Symb,u,RT,0,0,90,2,1,99,99,u,0.534985,1,3,90,0,90,0,1,,,,,,,,,,,,,,,,,,,,,,,,,,,,,,,,,,
,,,,,,,,,,,,,,,,,,,,3,3,2021-01-10_12h24.04.851,CL_C2S3,2020.1.3,Win32,60,,,,,h,1,0.535545,0,media/dcnb.png,1,"[1,-1,-1]",0,0,Symb,h,RT,0,0,91,2,1,99,99,h,0.535545,1,3,91,0,91,0,1,,,,,,,,,,,,,,,,,,,,,,,,,,,,,,,,,,
,,,,,,,,,,,,,,,,,,,,3,3,2021-01-10_12h24.04.851,CL_C2S3,2020.1.3,Win32,60,,,,,i,1,0.68558,1,media/dfnb.png,1,"[1,-1,-1]",1,1,Symb,i,RT,0,0,92,2,1,99,99,i,0.68558,1,3,92,0,92,0,1,,,,,,,,,,,,,,,,,,,,,,,,,,,,,,,,,,
,,,,,,,,,,,,,,,,,,,,3,3,2021-01-10_12h24.04.851,CL_C2S3,2020.1.3,Win32,60,,,,,h,1,0.53577,0,media/dcnb.png,1,"[1,-1,-1]",0,0,Symb,h,RT,0,0,93,2,1,99,99,h,0.53577,1,3,93,0,93,0,1,,,,,,,,,,,,,,,,,,,,,,,,,,,,,,,,,,
,,,,,,,,,,,,,,,,,,,,3,3,2021-01-10_12h24.04.851,CL_C2S3,2020.1.3,Win32,60,,,,,i,1,0.626265,2,media/dknb.png,2,"[-1,1,-1]",5,0,Symb,i,RT,0,0,94,2,1,99,99,i,0.626265,1,3,94,0,94,0,1,,,,,,,,,,,,,,,,,,,,,,,,,,,,,,,,,,
,,,,,,,,,,,,,,,,,,,,3,3,2021-01-10_12h24.04.851,CL_C2S3,2020.1.3,Win32,60,,,,,h,1,0.574035,0,media/dcnb.png,2,"[-1,1,-1]",3,0,Symb,h,RT,0,0,95,2,1,99,99,h,0.574035,1,3,95,0,95,0,1,,,,,,,,,,,,,,,,,,,,,,,,,,,,,,,,,,
,,,,,,,,,,,,,,,,,,,,3,3,2021-01-10_12h24.04.851,CL_C2S3,2020.1.3,Win32,60,,,,,u,1,0.603585,2,media/dknb.png,1,"[1,-1,-1]",2,0,Symb,u,RT,0,0,96,2,1,99,99,u,0.603585,1,3,96,0,96,0,1,,,,,,,,,,,,,,,,,,,,,,,,,,,,,,,,,,
,,,,,,,,,,,,,,,,,,,,3,3,2021-01-10_12h24.04.851,CL_C2S3,2020.1.3,Win32,60,,,,,u,1,0.802075,1,media/dfnb.png,2,"[-1,1,-1]",4,1,Symb,u,RT,0,0,97,2,1,99,99,u,0.802075,1,3,97,0,97,0,1,,,,,,,,,,,,,,,,,,,,,,,,,,,,,,,,,,
,,,,,,,,,,,,,,,,,,,,3,3,2021-01-10_12h24.04.851,CL_C2S3,2020.1.3,Win32,60,,,,,i,1,0.456675,1,media/dfnb.png,1,"[1,-1,-1]",1,1,Symb,i,RT,0,0,98,2,1,99,99,i,0.456675,1,3,98,0,98,0,1,,,,,,,,,,,,,,,,,,,,,,,,,,,,,,,,,,
,,,,,,,,,,,,,,,,,,,,3,3,2021-01-10_12h24.04.851,CL_C2S3,2020.1.3,Win32,60,,,,,h,1,0.56964,0,media/dcnb.png,2,"[-1,1,-1]",3,0,Symb,h,RT,0,0,99,2,1,99,99,h,0.56964,1,3,99,0,99,0,1,,,,,,,,,,,,,,,,,,,,,,,,,,,,,,,,,,
,,,,,,,,,,,,,,,,,,,,3,3,2021-01-10_12h24.04.851,CL_C2S3,2020.1.3,Win32,60,,,,,i,1,0.56786,2,media/dknb.png,2,"[-1,1,-1]",5,0,Symb,i,RT,0,0,100,2,1,99,99,i,0.56786,1,3,100,0,100,0,1,,,,,,,,,,,,,,,,,,,,,,,,,,,,,,,,,,
,,,,,,,,,,,,,,,,,,,,3,3,2021-01-10_12h24.04.851,CL_C2S3,2020.1.3,Win32,60,,,,,u,1,0.736245,1,media/dfnb.png,2,"[-1,1,-1]",4,1,Symb,u,RT,0,0,101,2,1,99,99,u,0.736245,1,3,101,0,101,0,1,,,,,,,,,,,,,,,,,,,,,,,,,,,,,,,,,,
,,,,,,,,,,,,,,,,,,,,3,3,2021-01-10_12h24.04.851,CL_C2S3,2020.1.3,Win32,60,,,,,u,1,0.484595,1,media/dfnb.png,2,"[-1,1,-1]",4,1,Symb,u,RT,0,0,102,2,1,99,99,u,0.484595,1,3,102,0,102,0,1,,,,,,,,,,,,,,,,,,,,,,,,,,,,,,,,,,
,,,,,,,,,,,,,,,,,,,,3,3,2021-01-10_12h24.04.851,CL_C2S3,2020.1.3,Win32,60,,,,,i,1,0.601745,2,media/dknb.png,2,"[-1,1,-1]",5,0,Symb,i,RT,0,0,103,2,1,99,99,i,0.601745,1,3,103,0,103,0,1,,,,,,,,,,,,,,,,,,,,,,,,,,,,,,,,,,
,,,,,,,,,,,,,,,,,,,,3,3,2021-01-10_12h24.04.851,CL_C2S3,2020.1.3,Win32,60,,,,,h,1,0.4678,0,media/dcnb.png,1,"[1,-1,-1]",0,0,Symb,h,RT,0,0,104,2,1,99,99,h,0.4678,1,3,104,0,104,0,1,,,,,,,,,,,,,,,,,,,,,,,,,,,,,,,,,,
,,,,,,,,,,,,,,,,,,,,3,3,2021-01-10_12h24.04.851,CL_C2S3,2020.1.3,Win32,60,,,,,h,1,0.467605,0,media/dcnb.png,2,"[-1,1,-1]",3,0,Symb,h,RT,0,0,105,2,1,99,99,h,0.467605,1,3,105,0,105,0,1,,,,,,,,,,,,,,,,,,,,,,,,,,,,,,,,,,
,,,,,,,,,,,,,,,,,,,,3,3,2021-01-10_12h24.04.851,CL_C2S3,2020.1.3,Win32,60,,,,,u,1,0.52532,1,media/dfnb.png,2,"[-1,1,-1]",4,1,Symb,u,RT,0,0,106,2,1,99,99,u,0.52532,1,3,106,0,106,0,1,,,,,,,,,,,,,,,,,,,,,,,,,,,,,,,,,,
,,,,,,,,,,,,,,,,,,,,3,3,2021-01-10_12h24.04.851,CL_C2S3,2020.1.3,Win32,60,,,,,h,1,0.525345,0,media/dcnb.png,2,"[-1,1,-1]",3,0,Symb,h,RT,0,0,107,2,1,99,99,h,0.525345,1,3,107,0,107,0,1,,,,,,,,,,,,,,,,,,,,,,,,,,,,,,,,,,
,,,,,,,,,,,,,,,,,,,,3,3,2021-01-10_12h24.04.851,CL_C2S3,2020.1.3,Win32,60,,,,,i,1,0.58563,1,media/dfnb.png,1,"[1,-1,-1]",1,1,Symb,i,RT,0,0,108,2,1,99,99,i,0.58563,1,3,108,0,108,0,1,,,,,,,,,,,,,,,,,,,,,,,,,,,,,,,,,,
,,,,,,,,,,,,,,,,,,,,3,3,2021-01-10_12h24.04.851,CL_C2S3,2020.1.3,Win32,60,,,,,h,1,0.52214,0,media/dcnb.png,1,"[1,-1,-1]",0,0,Symb,h,RT,0,0,109,2,1,99,99,h,0.52214,1,3,109,0,109,0,1,,,,,,,,,,,,,,,,,,,,,,,,,,,,,,,,,,
,,,,,,,,,,,,,,,,,,,,3,3,2021-01-10_12h24.04.851,CL_C2S3,2020.1.3,Win32,60,,,,,u,1,0.536625,2,media/dknb.png,1,"[1,-1,-1]",2,0,Symb,u,RT,0,0,110,2,1,99,99,u,0.536625,1,3,110,0,110,0,1,,,,,,,,,,,,,,,,,,,,,,,,,,,,,,,,,,
,,,,,,,,,,,,,,,,,,,,3,3,2021-01-10_12h24.04.851,CL_C2S3,2020.1.3,Win32,60,,,,,i,1,0.65148,1,media/dfnb.png,1,"[1,-1,-1]",1,1,Symb,i,RT,0,0,111,2,1,99,99,i,0.65148,1,3,111,0,111,0,1,,,,,,,,,,,,,,,,,,,,,,,,,,,,,,,,,,
,,,,,,,,,,,,,,,,,,,,3,3,2021-01-10_12h24.04.851,CL_C2S3,2020.1.3,Win32,60,,,,,i,1,0.58744,2,media/dknb.png,2,"[-1,1,-1]",5,0,Symb,i,RT,0,0,112,2,1,99,99,i,0.58744,1,3,112,0,112,0,1,,,,,,,,,,,,,,,,,,,,,,,,,,,,,,,,,,
,,,,,,,,,,,,,,,,,,,,3,3,2021-01-10_12h24.04.851,CL_C2S3,2020.1.3,Win32,60,,,,,u,1,0.6761,2,media/dknb.png,1,"[1,-1,-1]",2,0,Symb,u,RT,0,0,113,2,1,99,99,u,0.6761,1,3,113,0,113,0,1,,,,,,,,,,,,,,,,,,,,,,,,,,,,,,,,,,
,,,,,,,,,,,,,,,,,,,,3,3,2021-01-10_12h24.04.851,CL_C2S3,2020.1.3,Win32,60,,,,,h,1,0.487095,0,media/dcnb.png,2,"[-1,1,-1]",3,0,Symb,h,RT,0,0,114,2,1,99,99,h,0.487095,1,3,114,0,114,0,1,,,,,,,,,,,,,,,,,,,,,,,,,,,,,,,,,,
,,,,,,,,,,,,,,,,,,,,3,3,2021-01-10_12h24.04.851,CL_C2S3,2020.1.3,Win32,60,,,,,h,1,0.405555,0,media/dcnb.png,1,"[1,-1,-1]",0,0,Symb,h,RT,0,0,115,2,1,99,99,h,0.405555,1,3,115,0,115,0,1,,,,,,,,,,,,,,,,,,,,,,,,,,,,,,,,,,
,,,,,,,,,,,,,,,,,,,,3,3,2021-01-10_12h24.04.851,CL_C2S3,2020.1.3,Win32,60,,,,,u,1,0.613915,2,media/dknb.png,1,"[1,-1,-1]",2,0,Symb,u,RT,0,0,116,2,1,99,99,u,0.613915,1,3,116,0,116,0,1,,,,,,,,,,,,,,,,,,,,,,,,,,,,,,,,,,
,,,,,,,,,,,,,,,,,,,,3,3,2021-01-10_12h24.04.851,CL_C2S3,2020.1.3,Win32,60,,,,,i,1,0.470845,2,media/dknb.png,2,"[-1,1,-1]",5,0,Symb,i,RT,0,0,117,2,1,99,99,i,0.470845,1,3,117,0,117,0,1,,,,,,,,,,,,,,,,,,,,,,,,,,,,,,,,,,
,,,,,,,,,,,,,,,,,,,,3,3,2021-01-10_12h24.04.851,CL_C2S3,2020.1.3,Win32,60,,,,,u,1,0.53518,1,media/dfnb.png,2,"[-1,1,-1]",4,1,Symb,u,RT,0,0,118,2,1,99,99,u,0.53518,1,3,118,0,118,0,1,,,,,,,,,,,,,,,,,,,,,,,,,,,,,,,,,,
,,,,,,,,,,,,,,,,,,,,3,3,2021-01-10_12h24.04.851,CL_C2S3,2020.1.3,Win32,60,,,,,i,1,0.57041,1,media/dfnb.png,1,"[1,-1,-1]",1,1,Symb,i,RT,0,0,119,2,1,99,99,i,0.57041,1,3,119,0,119,0,1,,,,,,,,,,,,,,,,,,,,,,,,,,,,,,,,,,
,,,,,,,,,,,,,,,,,,,,3,3,2021-01-10_12h24.04.851,CL_C2S3,2020.1.3,Win32,60,,,,,,,,,,,,,,,,,,,,,,,,,,,,,,,,,0,0,0,0,1,,,,,,,,,,,,,,,,,,,,,,,,,,,,,
,,,,,,,,,,,,,,,,,,,,3,3,2021-01-10_12h24.04.851,CL_C2S3,2020.1.3,Win32,60,,,h,0.60117,u,1,0.653195,1,media/dfnb.png,2,"[-1,1,-1]",4,1,Symb,u,RT,0,0,0,2,2,99,99,u,0.653195,1,3,0,0,0,0,1,,,,,,,,,,,,,,,,,,,,,,,,,,,,,,,,,,
,,,,,,,,,,,,,,,,,,,,3,3,2021-01-10_12h24.04.851,CL_C2S3,2020.1.3,Win32,60,,,,,u,1,0.45465,1,media/dfnb.png,2,"[-1,1,-1]",4,1,Symb,u,RT,0,0,1,2,2,99,99,u,0.45465,1,3,1,0,1,0,1,,,,,,,,,,,,,,,,,,,,,,,,,,,,,,,,,,
,,,,,,,,,,,,,,,,,,,,3,3,2021-01-10_12h24.04.851,CL_C2S3,2020.1.3,Win32,60,,,,,h,1,0.45572,0,media/dcnb.png,2,"[-1,1,-1]",3,0,Symb,h,RT,0,0,2,2,2,99,99,h,0.45572,1,3,2,0,2,0,1,,,,,,,,,,,,,,,,,,,,,,,,,,,,,,,,,,
,,,,,,,,,,,,,,,,,,,,3,3,2021-01-10_12h24.04.851,CL_C2S3,2020.1.3,Win32,60,,,,,h,1,0.389925,0,media/dcnb.png,2,"[-1,1,-1]",3,0,Symb,h,RT,0,0,3,2,2,99,99,h,0.389925,1,3,3,0,3,0,1,,,,,,,,,,,,,,,,,,,,,,,,,,,,,,,,,,
,,,,,,,,,,,,,,,,,,,,3,3,2021-01-10_12h24.04.851,CL_C2S3,2020.1.3,Win32,60,,,,,i,0,0.434585,2,media/dknb.png,1,"[1,-1,-1]",2,0,Symb,u,RT,0,0,4,2,2,99,99,i,0.434585,0,3,4,0,4,0,1,,,,,,,,,,,,,,,,,,,,,,,,,,,,,,,,,,
,,,,,,,,,,,,,,,,,,,,3,3,2021-01-10_12h24.04.851,CL_C2S3,2020.1.3,Win32,60,,,,,u,1,0.62061,2,media/dknb.png,1,"[1,-1,-1]",2,0,Symb,u,RT,0,0,5,2,2,99,99,u,0.62061,1,3,5,0,5,0,1,,,,,,,,,,,,,,,,,,,,,,,,,,,,,,,,,,
,,,,,,,,,,,,,,,,,,,,3,3,2021-01-10_12h24.04.851,CL_C2S3,2020.1.3,Win32,60,,,,,i,1,0.519965,2,media/dknb.png,2,"[-1,1,-1]",5,0,Symb,i,RT,0,0,6,2,2,99,99,i,0.519965,1,3,6,0,6,0,1,,,,,,,,,,,,,,,,,,,,,,,,,,,,,,,,,,
,,,,,,,,,,,,,,,,,,,,3,3,2021-01-10_12h24.04.851,CL_C2S3,2020.1.3,Win32,60,,,,,i,1,0.67855,1,media/dfnb.png,1,"[1,-1,-1]",1,1,Symb,i,RT,0,0,7,2,2,99,99,i,0.67855,1,3,7,0,7,0,1,,,,,,,,,,,,,,,,,,,,,,,,,,,,,,,,,,
,,,,,,,,,,,,,,,,,,,,3,3,2021-01-10_12h24.04.851,CL_C2S3,2020.1.3,Win32,60,,,,,i,1,0.67175,2,media/dknb.png,2,"[-1,1,-1]",5,0,Symb,i,RT,0,0,8,2,2,99,99,i,0.67175,1,3,8,0,8,0,1,,,,,,,,,,,,,,,,,,,,,,,,,,,,,,,,,,
,,,,,,,,,,,,,,,,,,,,3,3,2021-01-10_12h24.04.851,CL_C2S3,2020.1.3,Win32,60,,,,,u,0,0.38844,1,media/dfnb.png,1,"[1,-1,-1]",1,1,Symb,i,RT,0,0,9,2,2,99,99,u,0.38844,0,3,9,0,9,0,1,,,,,,,,,,,,,,,,,,,,,,,,,,,,,,,,,,
,,,,,,,,,,,,,,,,,,,,3,3,2021-01-10_12h24.04.851,CL_C2S3,2020.1.3,Win32,60,,,,,h,1,0.50071,0,media/dcnb.png,1,"[1,-1,-1]",0,0,Symb,h,RT,0,0,10,2,2,99,99,h,0.50071,1,3,10,0,10,0,1,,,,,,,,,,,,,,,,,,,,,,,,,,,,,,,,,,
,,,,,,,,,,,,,,,,,,,,3,3,2021-01-10_12h24.04.851,CL_C2S3,2020.1.3,Win32,60,,,,,h,1,0.384345,0,media/dcnb.png,1,"[1,-1,-1]",0,0,Symb,h,RT,0,0,11,2,2,99,99,h,0.384345,1,3,11,0,11,0,1,,,,,,,,,,,,,,,,,,,,,,,,,,,,,,,,,,
,,,,,,,,,,,,,,,,,,,,3,3,2021-01-10_12h24.04.851,CL_C2S3,2020.1.3,Win32,60,,,,,h,1,0.451035,0,media/dcnb.png,2,"[-1,1,-1]",3,0,Symb,h,RT,0,0,12,2,2,99,99,h,0.451035,1,3,12,0,12,0,1,,,,,,,,,,,,,,,,,,,,,,,,,,,,,,,,,,
,,,,,,,,,,,,,,,,,,,,3,3,2021-01-10_12h24.04.851,CL_C2S3,2020.1.3,Win32,60,,,,,h,1,0.50121,0,media/dcnb.png,1,"[1,-1,-1]",0,0,Symb,h,RT,0,0,13,2,2,99,99,h,0.50121,1,3,13,0,13,0,1,,,,,,,,,,,,,,,,,,,,,,,,,,,,,,,,,,
,,,,,,,,,,,,,,,,,,,,3,3,2021-01-10_12h24.04.851,CL_C2S3,2020.1.3,Win32,60,,,,,u,1,0.76768,2,media/dknb.png,1,"[1,-1,-1]",2,0,Symb,u,RT,0,0,14,2,2,99,99,u,0.76768,1,3,14,0,14,0,1,,,,,,,,,,,,,,,,,,,,,,,,,,,,,,,,,,
,,,,,,,,,,,,,,,,,,,,3,3,2021-01-10_12h24.04.851,CL_C2S3,2020.1.3,Win32,60,,,,,i,1,0.817875,1,media/dfnb.png,1,"[1,-1,-1]",1,1,Symb,i,RT,0,0,15,2,2,99,99,i,0.817875,1,3,15,0,15,0,1,,,,,,,,,,,,,,,,,,,,,,,,,,,,,,,,,,
,,,,,,,,,,,,,,,,,,,,3,3,2021-01-10_12h24.04.851,CL_C2S3,2020.1.3,Win32,60,,,,,i,1,0.551135,2,media/dknb.png,2,"[-1,1,-1]",5,0,Symb,i,RT,0,0,16,2,2,99,99,i,0.551135,1,3,16,0,16,0,1,,,,,,,,,,,,,,,,,,,,,,,,,,,,,,,,,,
,,,,,,,,,,,,,,,,,,,,3,3,2021-01-10_12h24.04.851,CL_C2S3,2020.1.3,Win32,60,,,,,i,1,0.85095,1,media/dfnb.png,1,"[1,-1,-1]",1,1,Symb,i,RT,0,0,17,2,2,99,99,i,0.85095,1,3,17,0,17,0,1,,,,,,,,,,,,,,,,,,,,,,,,,,,,,,,,,,
,,,,,,,,,,,,,,,,,,,,3,3,2021-01-10_12h24.04.851,CL_C2S3,2020.1.3,Win32,60,,,,,h,1,0.517715,0,media/dcnb.png,2,"[-1,1,-1]",3,0,Symb,h,RT,0,0,18,2,2,99,99,h,0.517715,1,3,18,0,18,0,1,,,,,,,,,,,,,,,,,,,,,,,,,,,,,,,,,,
,,,,,,,,,,,,,,,,,,,,3,3,2021-01-10_12h24.04.851,CL_C2S3,2020.1.3,Win32,60,,,,,u,1,0.91758,1,media/dfnb.png,2,"[-1,1,-1]",4,1,Symb,u,RT,0,0,19,2,2,99,99,u,0.91758,1,3,19,0,19,0,1,,,,,,,,,,,,,,,,,,,,,,,,,,,,,,,,,,
,,,,,,,,,,,,,,,,,,,,3,3,2021-01-10_12h24.04.851,CL_C2S3,2020.1.3,Win32,60,,,,,u,1,1.117605,2,media/dknb.png,1,"[1,-1,-1]",2,0,Symb,u,RT,0,0,20,2,2,99,99,u,1.117605,1,3,20,0,20,0,1,,,,,,,,,,,,,,,,,,,,,,,,,,,,,,,,,,
,,,,,,,,,,,,,,,,,,,,3,3,2021-01-10_12h24.04.851,CL_C2S3,2020.1.3,Win32,60,,,,,i,1,0.486505,2,media/dknb.png,2,"[-1,1,-1]",5,0,Symb,i,RT,0,0,21,2,2,99,99,i,0.486505,1,3,21,0,21,0,1,,,,,,,,,,,,,,,,,,,,,,,,,,,,,,,,,,
,,,,,,,,,,,,,,,,,,,,3,3,2021-01-10_12h24.04.851,CL_C2S3,2020.1.3,Win32,60,,,,,h,1,0.51769,0,media/dcnb.png,1,"[1,-1,-1]",0,0,Symb,h,RT,0,0,22,2,2,99,99,h,0.51769,1,3,22,0,22,0,1,,,,,,,,,,,,,,,,,,,,,,,,,,,,,,,,,,
,,,,,,,,,,,,,,,,,,,,3,3,2021-01-10_12h24.04.851,CL_C2S3,2020.1.3,Win32,60,,,,,u,1,0.66769,1,media/dfnb.png,2,"[-1,1,-1]",4,1,Symb,u,RT,0,0,23,2,2,99,99,u,0.66769,1,3,23,0,23,0,1,,,,,,,,,,,,,,,,,,,,,,,,,,,,,,,,,,
,,,,,,,,,,,,,,,,,,,,3,3,2021-01-10_12h24.04.851,CL_C2S3,2020.1.3,Win32,60,,,,,h,1,0.60112,0,media/dcnb.png,1,"[1,-1,-1]",0,0,Symb,h,RT,0,0,24,2,2,99,99,h,0.60112,1,3,24,0,24,0,1,,,,,,,,,,,,,,,,,,,,,,,,,,,,,,,,,,
,,,,,,,,,,,,,,,,,,,,3,3,2021-01-10_12h24.04.851,CL_C2S3,2020.1.3,Win32,60,,,,,i,1,0.55081,2,media/dknb.png,2,"[-1,1,-1]",5,0,Symb,i,RT,0,0,25,2,2,99,99,i,0.55081,1,3,25,0,25,0,1,,,,,,,,,,,,,,,,,,,,,,,,,,,,,,,,,,
,,,,,,,,,,,,,,,,,,,,3,3,2021-01-10_12h24.04.851,CL_C2S3,2020.1.3,Win32,60,,,,,u,1,0.85321,1,media/dfnb.png,2,"[-1,1,-1]",4,1,Symb,u,RT,0,0,26,2,2,99,99,u,0.85321,1,3,26,0,26,0,1,,,,,,,,,,,,,,,,,,,,,,,,,,,,,,,,,,
,,,,,,,,,,,,,,,,,,,,3,3,2021-01-10_12h24.04.851,CL_C2S3,2020.1.3,Win32,60,,,,,i,0,0.9018,2,media/dknb.png,1,"[1,-1,-1]",2,0,Symb,u,RT,0,0,27,2,2,99,99,i,0.9018,0,3,27,0,27,0,1,,,,,,,,,,,,,,,,,,,,,,,,,,,,,,,,,,
,,,,,,,,,,,,,,,,,,,,3,3,2021-01-10_12h24.04.851,CL_C2S3,2020.1.3,Win32,60,,,,,i,0,0.450995,0,media/dcnb.png,2,"[-1,1,-1]",3,0,Symb,h,RT,0,0,28,2,2,99,99,i,0.450995,0,3,28,0,28,0,1,,,,,,,,,,,,,,,,,,,,,,,,,,,,,,,,,,
,,,,,,,,,,,,,,,,,,,,3,3,2021-01-10_12h24.04.851,CL_C2S3,2020.1.3,Win32,60,,,,,i,1,1.01954,1,media/dfnb.png,1,"[1,-1,-1]",1,1,Symb,i,RT,0,0,29,2,2,99,99,i,1.01954,1,3,29,0,29,0,1,,,,,,,,,,,,,,,,,,,,,,,,,,,,,,,,,,
,,,,,,,,,,,,,,,,,,,,3,3,2021-01-10_12h24.04.851,CL_C2S3,2020.1.3,Win32,60,,,,,i,1,0.734375,2,media/dknb.png,2,"[-1,1,-1]",5,0,Symb,i,RT,0,0,30,2,2,99,99,i,0.734375,1,3,30,0,30,0,1,,,,,,,,,,,,,,,,,,,,,,,,,,,,,,,,,,
,,,,,,,,,,,,,,,,,,,,3,3,2021-01-10_12h24.04.851,CL_C2S3,2020.1.3,Win32,60,,,,,i,1,0.722405,1,media/dfnb.png,1,"[1,-1,-1]",1,1,Symb,i,RT,0,0,31,2,2,99,99,i,0.722405,1,3,31,0,31,0,1,,,,,,,,,,,,,,,,,,,,,,,,,,,,,,,,,,
,,,,,,,,,,,,,,,,,,,,3,3,2021-01-10_12h24.04.851,CL_C2S3,2020.1.3,Win32,60,,,,,i,1,0.684515,2,media/dknb.png,2,"[-1,1,-1]",5,0,Symb,i,RT,0,0,32,2,2,99,99,i,0.684515,1,3,32,0,32,0,1,,,,,,,,,,,,,,,,,,,,,,,,,,,,,,,,,,
,,,,,,,,,,,,,,,,,,,,3,3,2021-01-10_12h24.04.851,CL_C2S3,2020.1.3,Win32,60,,,,,u,1,0.56885,2,media/dknb.png,1,"[1,-1,-1]",2,0,Symb,u,RT,0,0,33,2,2,99,99,u,0.56885,1,3,33,0,33,0,1,,,,,,,,,,,,,,,,,,,,,,,,,,,,,,,,,,
,,,,,,,,,,,,,,,,,,,,3,3,2021-01-10_12h24.04.851,CL_C2S3,2020.1.3,Win32,60,,,,,i,1,0.804835,1,media/dfnb.png,1,"[1,-1,-1]",1,1,Symb,i,RT,0,0,34,2,2,99,99,i,0.804835,1,3,34,0,34,0,1,,,,,,,,,,,,,,,,,,,,,,,,,,,,,,,,,,
,,,,,,,,,,,,,,,,,,,,3,3,2021-01-10_12h24.04.851,CL_C2S3,2020.1.3,Win32,60,,,,,h,1,0.50125,0,media/dcnb.png,2,"[-1,1,-1]",3,0,Symb,h,RT,0,0,35,2,2,99,99,h,0.50125,1,3,35,0,35,0,1,,,,,,,,,,,,,,,,,,,,,,,,,,,,,,,,,,
,,,,,,,,,,,,,,,,,,,,3,3,2021-01-10_12h24.04.851,CL_C2S3,2020.1.3,Win32,60,,,,,h,1,0.43513,0,media/dcnb.png,1,"[1,-1,-1]",0,0,Symb,h,RT,0,0,36,2,2,99,99,h,0.43513,1,3,36,0,36,0,1,,,,,,,,,,,,,,,,,,,,,,,,,,,,,,,,,,
,,,,,,,,,,,,,,,,,,,,3,3,2021-01-10_12h24.04.851,CL_C2S3,2020.1.3,Win32,60,,,,,u,1,0.784125,1,media/dfnb.png,2,"[-1,1,-1]",4,1,Symb,u,RT,0,0,37,2,2,99,99,u,0.784125,1,3,37,0,37,0,1,,,,,,,,,,,,,,,,,,,,,,,,,,,,,,,,,,
,,,,,,,,,,,,,,,,,,,,3,3,2021-01-10_12h24.04.851,CL_C2S3,2020.1.3,Win32,60,,,,,h,1,1.020255,0,media/dcnb.png,1,"[1,-1,-1]",0,0,Symb,h,RT,0,0,38,2,2,99,99,h,1.020255,1,3,38,0,38,0,1,,,,,,,,,,,,,,,,,,,,,,,,,,,,,,,,,,
,,,,,,,,,,,,,,,,,,,,3,3,2021-01-10_12h24.04.851,CL_C2S3,2020.1.3,Win32,60,,,,,u,1,1.80259,2,media/dknb.png,1,"[1,-1,-1]",2,0,Symb,u,RT,0,0,39,2,2,99,99,u,1.80259,1,3,39,0,39,0,1,,,,,,,,,,,,,,,,,,,,,,,,,,,,,,,,,,
,,,,,,,,,,,,,,,,,,,,3,3,2021-01-10_12h24.04.851,CL_C2S3,2020.1.3,Win32,60,,,,,h,1,0.569055,0,media/dcnb.png,2,"[-1,1,-1]",3,0,Symb,h,RT,0,0,40,2,2,99,99,h,0.569055,1,3,40,0,40,0,1,,,,,,,,,,,,,,,,,,,,,,,,,,,,,,,,,,
,,,,,,,,,,,,,,,,,,,,3,3,2021-01-10_12h24.04.851,CL_C2S3,2020.1.3,Win32,60,,,,,u,1,0.87234,1,media/dfnb.png,2,"[-1,1,-1]",4,1,Symb,u,RT,0,0,41,2,2,99,99,u,0.87234,1,3,41,0,41,0,1,,,,,,,,,,,,,,,,,,,,,,,,,,,,,,,,,,
,,,,,,,,,,,,,,,,,,,,3,3,2021-01-10_12h24.04.851,CL_C2S3,2020.1.3,Win32,60,,,,,u,1,0.503095,1,media/dfnb.png,2,"[-1,1,-1]",4,1,Symb,u,RT,0,0,42,2,2,99,99,u,0.503095,1,3,42,0,42,0,1,,,,,,,,,,,,,,,,,,,,,,,,,,,,,,,,,,
,,,,,,,,,,,,,,,,,,,,3,3,2021-01-10_12h24.04.851,CL_C2S3,2020.1.3,Win32,60,,,,,i,1,0.601795,1,media/dfnb.png,1,"[1,-1,-1]",1,1,Symb,i,RT,0,0,43,2,2,99,99,i,0.601795,1,3,43,0,43,0,1,,,,,,,,,,,,,,,,,,,,,,,,,,,,,,,,,,
,,,,,,,,,,,,,,,,,,,,3,3,2021-01-10_12h24.04.851,CL_C2S3,2020.1.3,Win32,60,,,,,i,1,0.884985,2,media/dknb.png,2,"[-1,1,-1]",5,0,Symb,i,RT,0,0,44,2,2,99,99,i,0.884985,1,3,44,0,44,0,1,,,,,,,,,,,,,,,,,,,,,,,,,,,,,,,,,,
,,,,,,,,,,,,,,,,,,,,3,3,2021-01-10_12h24.04.851,CL_C2S3,2020.1.3,Win32,60,,,,,i,1,0.43476,2,media/dknb.png,2,"[-1,1,-1]",5,0,Symb,i,RT,0,0,45,2,2,99,99,i,0.43476,1,3,45,0,45,0,1,,,,,,,,,,,,,,,,,,,,,,,,,,,,,,,,,,
,,,,,,,,,,,,,,,,,,,,3,3,2021-01-10_12h24.04.851,CL_C2S3,2020.1.3,Win32,60,,,,,u,1,0.518765,1,media/dfnb.png,2,"[-1,1,-1]",4,1,Symb,u,RT,0,0,46,2,2,99,99,u,0.518765,1,3,46,0,46,0,1,,,,,,,,,,,,,,,,,,,,,,,,,,,,,,,,,,
,,,,,,,,,,,,,,,,,,,,3,3,2021-01-10_12h24.04.851,CL_C2S3,2020.1.3,Win32,60,,,,,u,1,0.622315,2,media/dknb.png,1,"[1,-1,-1]",2,0,Symb,u,RT,0,0,47,2,2,99,99,u,0.622315,1,3,47,0,47,0,1,,,,,,,,,,,,,,,,,,,,,,,,,,,,,,,,,,
,,,,,,,,,,,,,,,,,,,,3,3,2021-01-10_12h24.04.851,CL_C2S3,2020.1.3,Win32,60,,,,,h,1,0.50357,0,media/dcnb.png,1,"[1,-1,-1]",0,0,Symb,h,RT,0,0,48,2,2,99,99,h,0.50357,1,3,48,0,48,0,1,,,,,,,,,,,,,,,,,,,,,,,,,,,,,,,,,,
,,,,,,,,,,,,,,,,,,,,3,3,2021-01-10_12h24.04.851,CL_C2S3,2020.1.3,Win32,60,,,,,h,1,0.404345,0,media/dcnb.png,2,"[-1,1,-1]",3,0,Symb,h,RT,0,0,49,2,2,99,99,h,0.404345,1,3,49,0,49,0,1,,,,,,,,,,,,,,,,,,,,,,,,,,,,,,,,,,
,,,,,,,,,,,,,,,,,,,,3,3,2021-01-10_12h24.04.851,CL_C2S3,2020.1.3,Win32,60,,,,,h,1,0.402455,0,media/dcnb.png,2,"[-1,1,-1]",3,0,Symb,h,RT,0,0,50,2,2,99,99,h,0.402455,1,3,50,0,50,0,1,,,,,,,,,,,,,,,,,,,,,,,,,,,,,,,,,,
,,,,,,,,,,,,,,,,,,,,3,3,2021-01-10_12h24.04.851,CL_C2S3,2020.1.3,Win32,60,,,,,h,1,0.402715,0,media/dcnb.png,1,"[1,-1,-1]",0,0,Symb,h,RT,0,0,51,2,2,99,99,h,0.402715,1,3,51,0,51,0,1,,,,,,,,,,,,,,,,,,,,,,,,,,,,,,,,,,
,,,,,,,,,,,,,,,,,,,,3,3,2021-01-10_12h24.04.851,CL_C2S3,2020.1.3,Win32,60,,,,,i,1,0.62076,1,media/dfnb.png,1,"[1,-1,-1]",1,1,Symb,i,RT,0,0,52,2,2,99,99,i,0.62076,1,3,52,0,52,0,1,,,,,,,,,,,,,,,,,,,,,,,,,,,,,,,,,,
,,,,,,,,,,,,,,,,,,,,3,3,2021-01-10_12h24.04.851,CL_C2S3,2020.1.3,Win32,60,,,,,u,1,0.70254,2,media/dknb.png,1,"[1,-1,-1]",2,0,Symb,u,RT,0,0,53,2,2,99,99,u,0.70254,1,3,53,0,53,0,1,,,,,,,,,,,,,,,,,,,,,,,,,,,,,,,,,,
,,,,,,,,,,,,,,,,,,,,3,3,2021-01-10_12h24.04.851,CL_C2S3,2020.1.3,Win32,60,,,,,u,1,0.537475,2,media/dknb.png,1,"[1,-1,-1]",2,0,Symb,u,RT,0,0,54,2,2,99,99,u,0.537475,1,3,54,0,54,0,1,,,,,,,,,,,,,,,,,,,,,,,,,,,,,,,,,,
,,,,,,,,,,,,,,,,,,,,3,3,2021-01-10_12h24.04.851,CL_C2S3,2020.1.3,Win32,60,,,,,i,1,0.60164,2,media/dknb.png,2,"[-1,1,-1]",5,0,Symb,i,RT,0,0,55,2,2,99,99,i,0.60164,1,3,55,0,55,0,1,,,,,,,,,,,,,,,,,,,,,,,,,,,,,,,,,,
,,,,,,,,,,,,,,,,,,,,3,3,2021-01-10_12h24.04.851,CL_C2S3,2020.1.3,Win32,60,,,,,h,1,0.51985,0,media/dcnb.png,1,"[1,-1,-1]",0,0,Symb,h,RT,0,0,56,2,2,99,99,h,0.51985,1,3,56,0,56,0,1,,,,,,,,,,,,,,,,,,,,,,,,,,,,,,,,,,
,,,,,,,,,,,,,,,,,,,,3,3,2021-01-10_12h24.04.851,CL_C2S3,2020.1.3,Win32,60,,,,,u,1,0.801875,1,media/dfnb.png,2,"[-1,1,-1]",4,1,Symb,u,RT,0,0,57,2,2,99,99,u,0.801875,1,3,57,0,57,0,1,,,,,,,,,,,,,,,,,,,,,,,,,,,,,,,,,,
,,,,,,,,,,,,,,,,,,,,3,3,2021-01-10_12h24.04.851,CL_C2S3,2020.1.3,Win32,60,,,,,i,1,0.702325,1,media/dfnb.png,1,"[1,-1,-1]",1,1,Symb,i,RT,0,0,58,2,2,99,99,i,0.702325,1,3,58,0,58,0,1,,,,,,,,,,,,,,,,,,,,,,,,,,,,,,,,,,
,,,,,,,,,,,,,,,,,,,,3,3,2021-01-10_12h24.04.851,CL_C2S3,2020.1.3,Win32,60,,,,,h,1,0.72155,0,media/dcnb.png,2,"[-1,1,-1]",3,0,Symb,h,RT,0,0,59,2,2,99,99,h,0.72155,1,3,59,0,59,0,1,,,,,,,,,,,,,,,,,,,,,,,,,,,,,,,,,,
,,,,,,,,,,,,,,,,,,,,3,3,2021-01-10_12h24.04.851,CL_C2S3,2020.1.3,Win32,60,,,,,u,1,0.53552,1,media/dfnb.png,2,"[-1,1,-1]",4,1,Symb,u,RT,0,0,60,2,2,99,99,u,0.53552,1,3,60,0,60,0,1,,,,,,,,,,,,,,,,,,,,,,,,,,,,,,,,,,
,,,,,,,,,,,,,,,,,,,,3,3,2021-01-10_12h24.04.851,CL_C2S3,2020.1.3,Win32,60,,,,,u,1,0.67244,2,media/dknb.png,1,"[1,-1,-1]",2,0,Symb,u,RT,0,0,61,2,2,99,99,u,0.67244,1,3,61,0,61,0,1,,,,,,,,,,,,,,,,,,,,,,,,,,,,,,,,,,
,,,,,,,,,,,,,,,,,,,,3,3,2021-01-10_12h24.04.851,CL_C2S3,2020.1.3,Win32,60,,,,,i,1,0.666475,2,media/dknb.png,2,"[-1,1,-1]",5,0,Symb,i,RT,0,0,62,2,2,99,99,i,0.666475,1,3,62,0,62,0,1,,,,,,,,,,,,,,,,,,,,,,,,,,,,,,,,,,
,,,,,,,,,,,,,,,,,,,,3,3,2021-01-10_12h24.04.851,CL_C2S3,2020.1.3,Win32,60,,,,,i,1,0.58739,2,media/dknb.png,2,"[-1,1,-1]",5,0,Symb,i,RT,0,0,63,2,2,99,99,i,0.58739,1,3,63,0,63,0,1,,,,,,,,,,,,,,,,,,,,,,,,,,,,,,,,,,
,,,,,,,,,,,,,,,,,,,,3,3,2021-01-10_12h24.04.851,CL_C2S3,2020.1.3,Win32,60,,,,,h,1,0.550995,0,media/dcnb.png,2,"[-1,1,-1]",3,0,Symb,h,RT,0,0,64,2,2,99,99,h,0.550995,1,3,64,0,64,0,1,,,,,,,,,,,,,,,,,,,,,,,,,,,,,,,,,,
,,,,,,,,,,,,,,,,,,,,3,3,2021-01-10_12h24.04.851,CL_C2S3,2020.1.3,Win32,60,,,,,h,1,0.387765,0,media/dcnb.png,1,"[1,-1,-1]",0,0,Symb,h,RT,0,0,65,2,2,99,99,h,0.387765,1,3,65,0,65,0,1,,,,,,,,,,,,,,,,,,,,,,,,,,,,,,,,,,
,,,,,,,,,,,,,,,,,,,,3,3,2021-01-10_12h24.04.851,CL_C2S3,2020.1.3,Win32,60,,,,,i,1,0.768225,1,media/dfnb.png,1,"[1,-1,-1]",1,1,Symb,i,RT,0,0,66,2,2,99,99,i,0.768225,1,3,66,0,66,0,1,,,,,,,,,,,,,,,,,,,,,,,,,,,,,,,,,,
,,,,,,,,,,,,,,,,,,,,3,3,2021-01-10_12h24.04.851,CL_C2S3,2020.1.3,Win32,60,,,,,i,1,0.551115,1,media/dfnb.png,1,"[1,-1,-1]",1,1,Symb,i,RT,0,0,67,2,2,99,99,i,0.551115,1,3,67,0,67,0,1,,,,,,,,,,,,,,,,,,,,,,,,,,,,,,,,,,
,,,,,,,,,,,,,,,,,,,,3,3,2021-01-10_12h24.04.851,CL_C2S3,2020.1.3,Win32,60,,,,,h,1,0.52294,0,media/dcnb.png,1,"[1,-1,-1]",0,0,Symb,h,RT,0,0,68,2,2,99,99,h,0.52294,1,3,68,0,68,0,1,,,,,,,,,,,,,,,,,,,,,,,,,,,,,,,,,,
,,,,,,,,,,,,,,,,,,,,3,3,2021-01-10_12h24.04.851,CL_C2S3,2020.1.3,Win32,60,,,,,u,1,0.684835,2,media/dknb.png,1,"[1,-1,-1]",2,0,Symb,u,RT,0,0,69,2,2,99,99,u,0.684835,1,3,69,0,69,0,1,,,,,,,,,,,,,,,,,,,,,,,,,,,,,,,,,,
,,,,,,,,,,,,,,,,,,,,3,3,2021-01-10_12h24.04.851,CL_C2S3,2020.1.3,Win32,60,,,,,h,1,0.50299,0,media/dcnb.png,2,"[-1,1,-1]",3,0,Symb,h,RT,0,0,70,2,2,99,99,h,0.50299,1,3,70,0,70,0,1,,,,,,,,,,,,,,,,,,,,,,,,,,,,,,,,,,
,,,,,,,,,,,,,,,,,,,,3,3,2021-01-10_12h24.04.851,CL_C2S3,2020.1.3,Win32,60,,,,,u,1,0.913835,1,media/dfnb.png,2,"[-1,1,-1]",4,1,Symb,u,RT,0,0,71,2,2,99,99,u,0.913835,1,3,71,0,71,0,1,,,,,,,,,,,,,,,,,,,,,,,,,,,,,,,,,,
,,,,,,,,,,,,,,,,,,,,3,3,2021-01-10_12h24.04.851,CL_C2S3,2020.1.3,Win32,60,,,,,u,1,0.433515,1,media/dfnb.png,2,"[-1,1,-1]",4,1,Symb,u,RT,0,0,72,2,2,99,99,u,0.433515,1,3,72,0,72,0,1,,,,,,,,,,,,,,,,,,,,,,,,,,,,,,,,,,
,,,,,,,,,,,,,,,,,,,,3,3,2021-01-10_12h24.04.851,CL_C2S3,2020.1.3,Win32,60,,,,,h,1,0.5021,0,media/dcnb.png,1,"[1,-1,-1]",0,0,Symb,h,RT,0,0,73,2,2,99,99,h,0.5021,1,3,73,0,73,0,1,,,,,,,,,,,,,,,,,,,,,,,,,,,,,,,,,,
,,,,,,,,,,,,,,,,,,,,3,3,2021-01-10_12h24.04.851,CL_C2S3,2020.1.3,Win32,60,,,,,i,1,0.717215,2,media/dknb.png,2,"[-1,1,-1]",5,0,Symb,i,RT,0,0,74,2,2,99,99,i,0.717215,1,3,74,0,74,0,1,,,,,,,,,,,,,,,,,,,,,,,,,,,,,,,,,,
,,,,,,,,,,,,,,,,,,,,3,3,2021-01-10_12h24.04.851,CL_C2S3,2020.1.3,Win32,60,,,,,i,1,0.49038,2,media/dknb.png,2,"[-1,1,-1]",5,0,Symb,i,RT,0,0,75,2,2,99,99,i,0.49038,1,3,75,0,75,0,1,,,,,,,,,,,,,,,,,,,,,,,,,,,,,,,,,,
,,,,,,,,,,,,,,,,,,,,3,3,2021-01-10_12h24.04.851,CL_C2S3,2020.1.3,Win32,60,,,,,i,1,1.38295,1,media/dfnb.png,1,"[1,-1,-1]",1,1,Symb,i,RT,0,0,76,2,2,99,99,i,1.38295,1,3,76,0,76,0,1,,,,,,,,,,,,,,,,,,,,,,,,,,,,,,,,,,
,,,,,,,,,,,,,,,,,,,,3,3,2021-01-10_12h24.04.851,CL_C2S3,2020.1.3,Win32,60,,,,,h,1,0.55256,0,media/dcnb.png,2,"[-1,1,-1]",3,0,Symb,h,RT,0,0,77,2,2,99,99,h,0.55256,1,3,77,0,77,0,1,,,,,,,,,,,,,,,,,,,,,,,,,,,,,,,,,,
,,,,,,,,,,,,,,,,,,,,3,3,2021-01-10_12h24.04.851,CL_C2S3,2020.1.3,Win32,60,,,,,u,1,0.777115,2,media/dknb.png,1,"[1,-1,-1]",2,0,Symb,u,RT,0,0,78,2,2,99,99,u,0.777115,1,3,78,0,78,0,1,,,,,,,,,,,,,,,,,,,,,,,,,,,,,,,,,,
,,,,,,,,,,,,,,,,,,,,3,3,2021-01-10_12h24.04.851,CL_C2S3,2020.1.3,Win32,60,,,,,u,1,0.415325,2,media/dknb.png,1,"[1,-1,-1]",2,0,Symb,u,RT,0,0,79,2,2,99,99,u,0.415325,1,3,79,0,79,0,1,,,,,,,,,,,,,,,,,,,,,,,,,,,,,,,,,,
,,,,,,,,,,,,,,,,,,,,3,3,2021-01-10_12h24.04.851,CL_C2S3,2020.1.3,Win32,60,,,,,h,1,0.483745,0,media/dcnb.png,1,"[1,-1,-1]",0,0,Symb,h,RT,0,0,80,2,2,99,99,h,0.483745,1,3,80,0,80,0,1,,,,,,,,,,,,,,,,,,,,,,,,,,,,,,,,,,
,,,,,,,,,,,,,,,,,,,,3,3,2021-01-10_12h24.04.851,CL_C2S3,2020.1.3,Win32,60,,,,,i,1,0.637995,1,media/dfnb.png,1,"[1,-1,-1]",1,1,Symb,i,RT,0,0,81,2,2,99,99,i,0.637995,1,3,81,0,81,0,1,,,,,,,,,,,,,,,,,,,,,,,,,,,,,,,,,,
,,,,,,,,,,,,,,,,,,,,3,3,2021-01-10_12h24.04.851,CL_C2S3,2020.1.3,Win32,60,,,,,h,1,0.532,0,media/dcnb.png,2,"[-1,1,-1]",3,0,Symb,h,RT,0,0,82,2,2,99,99,h,0.532,1,3,82,0,82,0,1,,,,,,,,,,,,,,,,,,,,,,,,,,,,,,,,,,
,,,,,,,,,,,,,,,,,,,,3,3,2021-01-10_12h24.04.851,CL_C2S3,2020.1.3,Win32,60,,,,,u,1,0.51779,1,media/dfnb.png,2,"[-1,1,-1]",4,1,Symb,u,RT,0,0,83,2,2,99,99,u,0.51779,1,3,83,0,83,0,1,,,,,,,,,,,,,,,,,,,,,,,,,,,,,,,,,,
,,,,,,,,,,,,,,,,,,,,3,3,2021-01-10_12h24.04.851,CL_C2S3,2020.1.3,Win32,60,,,,,i,1,0.53384,2,media/dknb.png,2,"[-1,1,-1]",5,0,Symb,i,RT,0,0,84,2,2,99,99,i,0.53384,1,3,84,0,84,0,1,,,,,,,,,,,,,,,,,,,,,,,,,,,,,,,,,,
,,,,,,,,,,,,,,,,,,,,3,3,2021-01-10_12h24.04.851,CL_C2S3,2020.1.3,Win32,60,,,,,h,1,0.66783,0,media/dcnb.png,1,"[1,-1,-1]",0,0,Symb,h,RT,0,0,85,2,2,99,99,h,0.66783,1,3,85,0,85,0,1,,,,,,,,,,,,,,,,,,,,,,,,,,,,,,,,,,
,,,,,,,,,,,,,,,,,,,,3,3,2021-01-10_12h24.04.851,CL_C2S3,2020.1.3,Win32,60,,,,,h,0,0.517685,2,media/dknb.png,1,"[1,-1,-1]",2,0,Symb,u,RT,0,0,86,2,2,99,99,h,0.517685,0,3,86,0,86,0,1,,,,,,,,,,,,,,,,,,,,,,,,,,,,,,,,,,
,,,,,,,,,,,,,,,,,,,,3,3,2021-01-10_12h24.04.851,CL_C2S3,2020.1.3,Win32,60,,,,,u,1,0.567835,1,media/dfnb.png,2,"[-1,1,-1]",4,1,Symb,u,RT,0,0,87,2,2,99,99,u,0.567835,1,3,87,0,87,0,1,,,,,,,,,,,,,,,,,,,,,,,,,,,,,,,,,,
,,,,,,,,,,,,,,,,,,,,3,3,2021-01-10_12h24.04.851,CL_C2S3,2020.1.3,Win32,60,,,,,u,0,0.417485,0,media/dcnb.png,2,"[-1,1,-1]",3,0,Symb,h,RT,0,0,88,2,2,99,99,u,0.417485,0,3,88,0,88,0,1,,,,,,,,,,,,,,,,,,,,,,,,,,,,,,,,,,
,,,,,,,,,,,,,,,,,,,,3,3,2021-01-10_12h24.04.851,CL_C2S3,2020.1.3,Win32,60,,,,,i,1,0.66744,1,media/dfnb.png,1,"[1,-1,-1]",1,1,Symb,i,RT,0,0,89,2,2,99,99,i,0.66744,1,3,89,0,89,0,1,,,,,,,,,,,,,,,,,,,,,,,,,,,,,,,,,,
,,,,,,,,,,,,,,,,,,,,3,3,2021-01-10_12h24.04.851,CL_C2S3,2020.1.3,Win32,60,,,,,i,1,0.60102,2,media/dknb.png,2,"[-1,1,-1]",5,0,Symb,i,RT,0,0,90,2,2,99,99,i,0.60102,1,3,90,0,90,0,1,,,,,,,,,,,,,,,,,,,,,,,,,,,,,,,,,,
,,,,,,,,,,,,,,,,,,,,3,3,2021-01-10_12h24.04.851,CL_C2S3,2020.1.3,Win32,60,,,,,h,1,0.58438,0,media/dcnb.png,2,"[-1,1,-1]",3,0,Symb,h,RT,0,0,91,2,2,99,99,h,0.58438,1,3,91,0,91,0,1,,,,,,,,,,,,,,,,,,,,,,,,,,,,,,,,,,
,,,,,,,,,,,,,,,,,,,,3,3,2021-01-10_12h24.04.851,CL_C2S3,2020.1.3,Win32,60,,,,,i,1,0.717665,1,media/dfnb.png,1,"[1,-1,-1]",1,1,Symb,i,RT,0,0,92,2,2,99,99,i,0.717665,1,3,92,0,92,0,1,,,,,,,,,,,,,,,,,,,,,,,,,,,,,,,,,,
,,,,,,,,,,,,,,,,,,,,3,3,2021-01-10_12h24.04.851,CL_C2S3,2020.1.3,Win32,60,,,,,u,1,0.55102,1,media/dfnb.png,2,"[-1,1,-1]",4,1,Symb,u,RT,0,0,93,2,2,99,99,u,0.55102,1,3,93,0,93,0,1,,,,,,,,,,,,,,,,,,,,,,,,,,,,,,,,,,
,,,,,,,,,,,,,,,,,,,,3,3,2021-01-10_12h24.04.851,CL_C2S3,2020.1.3,Win32,60,,,,,h,1,0.5344,0,media/dcnb.png,1,"[1,-1,-1]",0,0,Symb,h,RT,0,0,94,2,2,99,99,h,0.5344,1,3,94,0,94,0,1,,,,,,,,,,,,,,,,,,,,,,,,,,,,,,,,,,
,,,,,,,,,,,,,,,,,,,,3,3,2021-01-10_12h24.04.851,CL_C2S3,2020.1.3,Win32,60,,,,,i,1,0.55103,2,media/dknb.png,2,"[-1,1,-1]",5,0,Symb,i,RT,0,0,95,2,2,99,99,i,0.55103,1,3,95,0,95,0,1,,,,,,,,,,,,,,,,,,,,,,,,,,,,,,,,,,
,,,,,,,,,,,,,,,,,,,,3,3,2021-01-10_12h24.04.851,CL_C2S3,2020.1.3,Win32,60,,,,,h,1,0.651875,0,media/dcnb.png,2,"[-1,1,-1]",3,0,Symb,h,RT,0,0,96,2,2,99,99,h,0.651875,1,3,96,0,96,0,1,,,,,,,,,,,,,,,,,,,,,,,,,,,,,,,,,,
,,,,,,,,,,,,,,,,,,,,3,3,2021-01-10_12h24.04.851,CL_C2S3,2020.1.3,Win32,60,,,,,u,1,0.684135,1,media/dfnb.png,2,"[-1,1,-1]",4,1,Symb,u,RT,0,0,97,2,2,99,99,u,0.684135,1,3,97,0,97,0,1,,,,,,,,,,,,,,,,,,,,,,,,,,,,,,,,,,
,,,,,,,,,,,,,,,,,,,,3,3,2021-01-10_12h24.04.851,CL_C2S3,2020.1.3,Win32,60,,,,,h,1,0.55088,0,media/dcnb.png,1,"[1,-1,-1]",0,0,Symb,h,RT,0,0,98,2,2,99,99,h,0.55088,1,3,98,0,98,0,1,,,,,,,,,,,,,,,,,,,,,,,,,,,,,,,,,,
,,,,,,,,,,,,,,,,,,,,3,3,2021-01-10_12h24.04.851,CL_C2S3,2020.1.3,Win32,60,,,,,u,1,1.16801,2,media/dknb.png,1,"[1,-1,-1]",2,0,Symb,u,RT,0,0,99,2,2,99,99,u,1.16801,1,3,99,0,99,0,1,,,,,,,,,,,,,,,,,,,,,,,,,,,,,,,,,,
,,,,,,,,,,,,,,,,,,,,3,3,2021-01-10_12h24.04.851,CL_C2S3,2020.1.3,Win32,60,,,,,i,1,0.88455,1,media/dfnb.png,1,"[1,-1,-1]",1,1,Symb,i,RT,0,0,100,2,2,99,99,i,0.88455,1,3,100,0,100,0,1,,,,,,,,,,,,,,,,,,,,,,,,,,,,,,,,,,
,,,,,,,,,,,,,,,,,,,,3,3,2021-01-10_12h24.04.851,CL_C2S3,2020.1.3,Win32,60,,,,,u,1,0.71771,2,media/dknb.png,1,"[1,-1,-1]",2,0,Symb,u,RT,0,0,101,2,2,99,99,u,0.71771,1,3,101,0,101,0,1,,,,,,,,,,,,,,,,,,,,,,,,,,,,,,,,,,
,,,,,,,,,,,,,,,,,,,,3,3,2021-01-10_12h24.04.851,CL_C2S3,2020.1.3,Win32,60,,,,,h,1,0.484395,0,media/dcnb.png,1,"[1,-1,-1]",0,0,Symb,h,RT,0,0,102,2,2,99,99,h,0.484395,1,3,102,0,102,0,1,,,,,,,,,,,,,,,,,,,,,,,,,,,,,,,,,,
,,,,,,,,,,,,,,,,,,,,3,3,2021-01-10_12h24.04.851,CL_C2S3,2020.1.3,Win32,60,,,,,i,1,0.584395,2,media/dknb.png,2,"[-1,1,-1]",5,0,Symb,i,RT,0,0,103,2,2,99,99,i,0.584395,1,3,103,0,103,0,1,,,,,,,,,,,,,,,,,,,,,,,,,,,,,,,,,,
,,,,,,,,,,,,,,,,,,,,3,3,2021-01-10_12h24.04.851,CL_C2S3,2020.1.3,Win32,60,,,,,u,1,0.7539,1,media/dfnb.png,2,"[-1,1,-1]",4,1,Symb,u,RT,0,0,104,2,2,99,99,u,0.7539,1,3,104,0,104,0,1,,,,,,,,,,,,,,,,,,,,,,,,,,,,,,,,,,
,,,,,,,,,,,,,,,,,,,,3,3,2021-01-10_12h24.04.851,CL_C2S3,2020.1.3,Win32,60,,,,,h,1,0.550905,0,media/dcnb.png,2,"[-1,1,-1]",3,0,Symb,h,RT,0,0,105,2,2,99,99,h,0.550905,1,3,105,0,105,0,1,,,,,,,,,,,,,,,,,,,,,,,,,,,,,,,,,,
,,,,,,,,,,,,,,,,,,,,3,3,2021-01-10_12h24.04.851,CL_C2S3,2020.1.3,Win32,60,,,,,u,1,0.68419,2,media/dknb.png,1,"[1,-1,-1]",2,0,Symb,u,RT,0,0,106,2,2,99,99,u,0.68419,1,3,106,0,106,0,1,,,,,,,,,,,,,,,,,,,,,,,,,,,,,,,,,,
,,,,,,,,,,,,,,,,,,,,3,3,2021-01-10_12h24.04.851,CL_C2S3,2020.1.3,Win32,60,,,,,u,1,1.72438,1,media/dfnb.png,2,"[-1,1,-1]",4,1,Symb,u,RT,0,0,107,2,2,99,99,u,1.72438,1,3,107,0,107,0,1,,,,,,,,,,,,,,,,,,,,,,,,,,,,,,,,,,
,,,,,,,,,,,,,,,,,,,,3,3,2021-01-10_12h24.04.851,CL_C2S3,2020.1.3,Win32,60,,,,,h,1,0.569275,0,media/dcnb.png,1,"[1,-1,-1]",0,0,Symb,h,RT,0,0,108,2,2,99,99,h,0.569275,1,3,108,0,108,0,1,,,,,,,,,,,,,,,,,,,,,,,,,,,,,,,,,,
,,,,,,,,,,,,,,,,,,,,3,3,2021-01-10_12h24.04.851,CL_C2S3,2020.1.3,Win32,60,,,,,i,1,0.68418,1,media/dfnb.png,1,"[1,-1,-1]",1,1,Symb,i,RT,0,0,109,2,2,99,99,i,0.68418,1,3,109,0,109,0,1,,,,,,,,,,,,,,,,,,,,,,,,,,,,,,,,,,
,,,,,,,,,,,,,,,,,,,,3,3,2021-01-10_12h24.04.851,CL_C2S3,2020.1.3,Win32,60,,,,,h,1,0.586295,0,media/dcnb.png,2,"[-1,1,-1]",3,0,Symb,h,RT,0,0,110,2,2,99,99,h,0.586295,1,3,110,0,110,0,1,,,,,,,,,,,,,,,,,,,,,,,,,,,,,,,,,,
,,,,,,,,,,,,,,,,,,,,3,3,2021-01-10_12h24.04.851,CL_C2S3,2020.1.3,Win32,60,,,,,i,1,0.737635,2,media/dknb.png,2,"[-1,1,-1]",5,0,Symb,i,RT,0,0,111,2,2,99,99,i,0.737635,1,3,111,0,111,0,1,,,,,,,,,,,,,,,,,,,,,,,,,,,,,,,,,,
,,,,,,,,,,,,,,,,,,,,3,3,2021-01-10_12h24.04.851,CL_C2S3,2020.1.3,Win32,60,,,,,u,1,0.587725,2,media/dknb.png,1,"[1,-1,-1]",2,0,Symb,u,RT,0,0,112,2,2,99,99,u,0.587725,1,3,112,0,112,0,1,,,,,,,,,,,,,,,,,,,,,,,,,,,,,,,,,,
,,,,,,,,,,,,,,,,,,,,3,3,2021-01-10_12h24.04.851,CL_C2S3,2020.1.3,Win32,60,,,,,i,1,0.75318,1,media/dfnb.png,1,"[1,-1,-1]",1,1,Symb,i,RT,0,0,113,2,2,99,99,i,0.75318,1,3,113,0,113,0,1,,,,,,,,,,,,,,,,,,,,,,,,,,,,,,,,,,
,,,,,,,,,,,,,,,,,,,,3,3,2021-01-10_12h24.04.851,CL_C2S3,2020.1.3,Win32,60,,,,,u,1,0.589465,1,media/dfnb.png,2,"[-1,1,-1]",4,1,Symb,u,RT,0,0,114,2,2,99,99,u,0.589465,1,3,114,0,114,0,1,,,,,,,,,,,,,,,,,,,,,,,,,,,,,,,,,,
,,,,,,,,,,,,,,,,,,,,3,3,2021-01-10_12h24.04.851,CL_C2S3,2020.1.3,Win32,60,,,,,h,1,0.518065,0,media/dcnb.png,1,"[1,-1,-1]",0,0,Symb,h,RT,0,0,115,2,2,99,99,h,0.518065,1,3,115,0,115,0,1,,,,,,,,,,,,,,,,,,,,,,,,,,,,,,,,,,
,,,,,,,,,,,,,,,,,,,,3,3,2021-01-10_12h24.04.851,CL_C2S3,2020.1.3,Win32,60,,,,,i,1,0.834975,1,media/dfnb.png,1,"[1,-1,-1]",1,1,Symb,i,RT,0,0,116,2,2,99,99,i,0.834975,1,3,116,0,116,0,1,,,,,,,,,,,,,,,,,,,,,,,,,,,,,,,,,,
,,,,,,,,,,,,,,,,,,,,3,3,2021-01-10_12h24.04.851,CL_C2S3,2020.1.3,Win32,60,,,,,h,1,0.554535,0,media/dcnb.png,2,"[-1,1,-1]",3,0,Symb,h,RT,0,0,117,2,2,99,99,h,0.554535,1,3,117,0,117,0,1,,,,,,,,,,,,,,,,,,,,,,,,,,,,,,,,,,
,,,,,,,,,,,,,,,,,,,,3,3,2021-01-10_12h24.04.851,CL_C2S3,2020.1.3,Win32,60,,,,,u,1,0.71855,2,media/dknb.png,1,"[1,-1,-1]",2,0,Symb,u,RT,0,0,118,2,2,99,99,u,0.71855,1,3,118,0,118,0,1,,,,,,,,,,,,,,,,,,,,,,,,,,,,,,,,,,
,,,,,,,,,,,,,,,,,,,,3,3,2021-01-10_12h24.04.851,CL_C2S3,2020.1.3,Win32,60,,,,,i,1,0.55504,2,media/dknb.png,2,"[-1,1,-1]",5,0,Symb,i,RT,0,0,119,2,2,99,99,i,0.55504,1,3,119,0,119,0,1,,,,,,,,,,,,,,,,,,,,,,,,,,,,,,,,,,
,,,,,,,,,,,,,,,,,,,,3,3,2021-01-10_12h24.04.851,CL_C2S3,2020.1.3,Win32,60,,,,,,,,,,,,,,,,,,,,,,,,,,,,,,,,,1,0,1,0,1,,,,,,,,,,,,,,,,,,,,,,,,,,,,,
,,,,,,,,,,,,,,,,,,,,3,3,2021-01-10_12h24.04.851,CL_C2S3,2020.1.3,Win32,60,,,u,0.41804,h,1,0.55934,0,media/dcnb.png,1,"[1,-1,-1]",0,0,Symb,h,RT,0,0,0,2,3,99,99,h,0.55934,1,3,0,0,0,0,1,,,,,,,,,,,,,,,,,,,,,,,,,,,,,,,,,,
,,,,,,,,,,,,,,,,,,,,3,3,2021-01-10_12h24.04.851,CL_C2S3,2020.1.3,Win32,60,,,,,i,1,0.654735,1,media/dfnb.png,1,"[1,-1,-1]",1,1,Symb,i,RT,0,0,1,2,3,99,99,i,0.654735,1,3,1,0,1,0,1,,,,,,,,,,,,,,,,,,,,,,,,,,,,,,,,,,
,,,,,,,,,,,,,,,,,,,,3,3,2021-01-10_12h24.04.851,CL_C2S3,2020.1.3,Win32,60,,,,,h,1,0.52628,0,media/dcnb.png,2,"[-1,1,-1]",3,0,Symb,h,RT,0,0,2,2,3,99,99,h,0.52628,1,3,2,0,2,0,1,,,,,,,,,,,,,,,,,,,,,,,,,,,,,,,,,,
,,,,,,,,,,,,,,,,,,,,3,3,2021-01-10_12h24.04.851,CL_C2S3,2020.1.3,Win32,60,,,,,u,1,0.553485,1,media/dfnb.png,2,"[-1,1,-1]",4,1,Symb,u,RT,0,0,3,2,3,99,99,u,0.553485,1,3,3,0,3,0,1,,,,,,,,,,,,,,,,,,,,,,,,,,,,,,,,,,
,,,,,,,,,,,,,,,,,,,,3,3,2021-01-10_12h24.04.851,CL_C2S3,2020.1.3,Win32,60,,,,,i,1,0.635485,1,media/dfnb.png,1,"[1,-1,-1]",1,1,Symb,i,RT,0,0,4,2,3,99,99,i,0.635485,1,3,4,0,4,0,1,,,,,,,,,,,,,,,,,,,,,,,,,,,,,,,,,,
,,,,,,,,,,,,,,,,,,,,3,3,2021-01-10_12h24.04.851,CL_C2S3,2020.1.3,Win32,60,,,,,i,1,0.54366,2,media/dknb.png,2,"[-1,1,-1]",5,0,Symb,i,RT,0,0,5,2,3,99,99,i,0.54366,1,3,5,0,5,0,1,,,,,,,,,,,,,,,,,,,,,,,,,,,,,,,,,,
,,,,,,,,,,,,,,,,,,,,3,3,2021-01-10_12h24.04.851,CL_C2S3,2020.1.3,Win32,60,,,,,u,1,0.50244,1,media/dfnb.png,2,"[-1,1,-1]",4,1,Symb,u,RT,0,0,6,2,3,99,99,u,0.50244,1,3,6,0,6,0,1,,,,,,,,,,,,,,,,,,,,,,,,,,,,,,,,,,
,,,,,,,,,,,,,,,,,,,,3,3,2021-01-10_12h24.04.851,CL_C2S3,2020.1.3,Win32,60,,,,,u,1,0.62238,2,media/dknb.png,1,"[1,-1,-1]",2,0,Symb,u,RT,0,0,7,2,3,99,99,u,0.62238,1,3,7,0,7,0,1,,,,,,,,,,,,,,,,,,,,,,,,,,,,,,,,,,
,,,,,,,,,,,,,,,,,,,,3,3,2021-01-10_12h24.04.851,CL_C2S3,2020.1.3,Win32,60,,,,,h,1,0.434085,0,media/dcnb.png,2,"[-1,1,-1]",3,0,Symb,h,RT,0,0,8,2,3,99,99,h,0.434085,1,3,8,0,8,0,1,,,,,,,,,,,,,,,,,,,,,,,,,,,,,,,,,,
,,,,,,,,,,,,,,,,,,,,3,3,2021-01-10_12h24.04.851,CL_C2S3,2020.1.3,Win32,60,,,,,u,1,0.817755,2,media/dknb.png,1,"[1,-1,-1]",2,0,Symb,u,RT,0,0,9,2,3,99,99,u,0.817755,1,3,9,0,9,0,1,,,,,,,,,,,,,,,,,,,,,,,,,,,,,,,,,,
,,,,,,,,,,,,,,,,,,,,3,3,2021-01-10_12h24.04.851,CL_C2S3,2020.1.3,Win32,60,,,,,h,1,0.550965,0,media/dcnb.png,1,"[1,-1,-1]",0,0,Symb,h,RT,0,0,10,2,3,99,99,h,0.550965,1,3,10,0,10,0,1,,,,,,,,,,,,,,,,,,,,,,,,,,,,,,,,,,
,,,,,,,,,,,,,,,,,,,,3,3,2021-01-10_12h24.04.851,CL_C2S3,2020.1.3,Win32,60,,,,,i,1,0.517285,2,media/dknb.png,2,"[-1,1,-1]",5,0,Symb,i,RT,0,0,11,2,3,99,99,i,0.517285,1,3,11,0,11,0,1,,,,,,,,,,,,,,,,,,,,,,,,,,,,,,,,,,
,,,,,,,,,,,,,,,,,,,,3,3,2021-01-10_12h24.04.851,CL_C2S3,2020.1.3,Win32,60,,,,,h,1,0.55191,0,media/dcnb.png,1,"[1,-1,-1]",0,0,Symb,h,RT,0,0,12,2,3,99,99,h,0.55191,1,3,12,0,12,0,1,,,,,,,,,,,,,,,,,,,,,,,,,,,,,,,,,,
,,,,,,,,,,,,,,,,,,,,3,3,2021-01-10_12h24.04.851,CL_C2S3,2020.1.3,Win32,60,,,,,u,1,0.571615,1,media/dfnb.png,2,"[-1,1,-1]",4,1,Symb,u,RT,0,0,13,2,3,99,99,u,0.571615,1,3,13,0,13,0,1,,,,,,,,,,,,,,,,,,,,,,,,,,,,,,,,,,
,,,,,,,,,,,,,,,,,,,,3,3,2021-01-10_12h24.04.851,CL_C2S3,2020.1.3,Win32,60,,,,,u,1,0.653865,2,media/dknb.png,1,"[1,-1,-1]",2,0,Symb,u,RT,0,0,14,2,3,99,99,u,0.653865,1,3,14,0,14,0,1,,,,,,,,,,,,,,,,,,,,,,,,,,,,,,,,,,
,,,,,,,,,,,,,,,,,,,,3,3,2021-01-10_12h24.04.851,CL_C2S3,2020.1.3,Win32,60,,,,,i,1,0.58828,2,media/dknb.png,2,"[-1,1,-1]",5,0,Symb,i,RT,0,0,15,2,3,99,99,i,0.58828,1,3,15,0,15,0,1,,,,,,,,,,,,,,,,,,,,,,,,,,,,,,,,,,
,,,,,,,,,,,,,,,,,,,,3,3,2021-01-10_12h24.04.851,CL_C2S3,2020.1.3,Win32,60,,,,,h,1,0.571015,0,media/dcnb.png,2,"[-1,1,-1]",3,0,Symb,h,RT,0,0,16,2,3,99,99,h,0.571015,1,3,16,0,16,0,1,,,,,,,,,,,,,,,,,,,,,,,,,,,,,,,,,,
,,,,,,,,,,,,,,,,,,,,3,3,2021-01-10_12h24.04.851,CL_C2S3,2020.1.3,Win32,60,,,,,u,1,0.651615,2,media/dknb.png,1,"[1,-1,-1]",2,0,Symb,u,RT,0,0,17,2,3,99,99,u,0.651615,1,3,17,0,17,0,1,,,,,,,,,,,,,,,,,,,,,,,,,,,,,,,,,,
,,,,,,,,,,,,,,,,,,,,3,3,2021-01-10_12h24.04.851,CL_C2S3,2020.1.3,Win32,60,,,,,i,1,0.63677,2,media/dknb.png,2,"[-1,1,-1]",5,0,Symb,i,RT,0,0,18,2,3,99,99,i,0.63677,1,3,18,0,18,0,1,,,,,,,,,,,,,,,,,,,,,,,,,,,,,,,,,,
,,,,,,,,,,,,,,,,,,,,3,3,2021-01-10_12h24.04.851,CL_C2S3,2020.1.3,Win32,60,,,,,i,1,1.001205,1,media/dfnb.png,1,"[1,-1,-1]",1,1,Symb,i,RT,0,0,19,2,3,99,99,i,1.001205,1,3,19,0,19,0,1,,,,,,,,,,,,,,,,,,,,,,,,,,,,,,,,,,
,,,,,,,,,,,,,,,,,,,,3,3,2021-01-10_12h24.04.851,CL_C2S3,2020.1.3,Win32,60,,,,,h,1,0.818755,0,media/dcnb.png,2,"[-1,1,-1]",3,0,Symb,h,RT,0,0,20,2,3,99,99,h,0.818755,1,3,20,0,20,0,1,,,,,,,,,,,,,,,,,,,,,,,,,,,,,,,,,,
,,,,,,,,,,,,,,,,,,,,3,3,2021-01-10_12h24.04.851,CL_C2S3,2020.1.3,Win32,60,,,,,h,1,0.51365,0,media/dcnb.png,1,"[1,-1,-1]",0,0,Symb,h,RT,0,0,21,2,3,99,99,h,0.51365,1,3,21,0,21,0,1,,,,,,,,,,,,,,,,,,,,,,,,,,,,,,,,,,
,,,,,,,,,,,,,,,,,,,,3,3,2021-01-10_12h24.04.851,CL_C2S3,2020.1.3,Win32,60,,,,,i,1,0.689335,1,media/dfnb.png,1,"[1,-1,-1]",1,1,Symb,i,RT,0,0,22,2,3,99,99,i,0.689335,1,3,22,0,22,0,1,,,,,,,,,,,,,,,,,,,,,,,,,,,,,,,,,,
,,,,,,,,,,,,,,,,,,,,3,3,2021-01-10_12h24.04.851,CL_C2S3,2020.1.3,Win32,60,,,,,u,1,0.98711,1,media/dfnb.png,2,"[-1,1,-1]",4,1,Symb,u,RT,0,0,23,2,3,99,99,u,0.98711,1,3,23,0,23,0,1,,,,,,,,,,,,,,,,,,,,,,,,,,,,,,,,,,
,,,,,,,,,,,,,,,,,,,,3,3,2021-01-10_12h24.04.851,CL_C2S3,2020.1.3,Win32,60,,,,,u,1,0.636385,2,media/dknb.png,1,"[1,-1,-1]",2,0,Symb,u,RT,0,0,24,2,3,99,99,u,0.636385,1,3,24,0,24,0,1,,,,,,,,,,,,,,,,,,,,,,,,,,,,,,,,,,
,,,,,,,,,,,,,,,,,,,,3,3,2021-01-10_12h24.04.851,CL_C2S3,2020.1.3,Win32,60,,,,,h,1,0.59373,0,media/dcnb.png,2,"[-1,1,-1]",3,0,Symb,h,RT,0,0,25,2,3,99,99,h,0.59373,1,3,25,0,25,0,1,,,,,,,,,,,,,,,,,,,,,,,,,,,,,,,,,,
,,,,,,,,,,,,,,,,,,,,3,3,2021-01-10_12h24.04.851,CL_C2S3,2020.1.3,Win32,60,,,,,h,1,0.386355,0,media/dcnb.png,1,"[1,-1,-1]",0,0,Symb,h,RT,0,0,26,2,3,99,99,h,0.386355,1,3,26,0,26,0,1,,,,,,,,,,,,,,,,,,,,,,,,,,,,,,,,,,
,,,,,,,,,,,,,,,,,,,,3,3,2021-01-10_12h24.04.851,CL_C2S3,2020.1.3,Win32,60,,,,,i,0,0.6393,1,media/dfnb.png,2,"[-1,1,-1]",4,1,Symb,u,RT,0,0,27,2,3,99,99,i,0.6393,0,3,27,0,27,0,1,,,,,,,,,,,,,,,,,,,,,,,,,,,,,,,,,,
,,,,,,,,,,,,,,,,,,,,3,3,2021-01-10_12h24.04.851,CL_C2S3,2020.1.3,Win32,60,,,,,i,1,0.53522,1,media/dfnb.png,1,"[1,-1,-1]",1,1,Symb,i,RT,0,0,28,2,3,99,99,i,0.53522,1,3,28,0,28,0,1,,,,,,,,,,,,,,,,,,,,,,,,,,,,,,,,,,
,,,,,,,,,,,,,,,,,,,,3,3,2021-01-10_12h24.04.851,CL_C2S3,2020.1.3,Win32,60,,,,,i,1,0.453635,2,media/dknb.png,2,"[-1,1,-1]",5,0,Symb,i,RT,0,0,29,2,3,99,99,i,0.453635,1,3,29,0,29,0,1,,,,,,,,,,,,,,,,,,,,,,,,,,,,,,,,,,
,,,,,,,,,,,,,,,,,,,,3,3,2021-01-10_12h24.04.851,CL_C2S3,2020.1.3,Win32,60,,,,,u,1,0.472025,1,media/dfnb.png,2,"[-1,1,-1]",4,1,Symb,u,RT,0,0,30,2,3,99,99,u,0.472025,1,3,30,0,30,0,1,,,,,,,,,,,,,,,,,,,,,,,,,,,,,,,,,,
,,,,,,,,,,,,,,,,,,,,3,3,2021-01-10_12h24.04.851,CL_C2S3,2020.1.3,Win32,60,,,,,h,1,0.572685,0,media/dcnb.png,2,"[-1,1,-1]",3,0,Symb,h,RT,0,0,31,2,3,99,99,h,0.572685,1,3,31,0,31,0,1,,,,,,,,,,,,,,,,,,,,,,,,,,,,,,,,,,
,,,,,,,,,,,,,,,,,,,,3,3,2021-01-10_12h24.04.851,CL_C2S3,2020.1.3,Win32,60,,,,,i,1,0.75499,1,media/dfnb.png,1,"[1,-1,-1]",1,1,Symb,i,RT,0,0,32,2,3,99,99,i,0.75499,1,3,32,0,32,0,1,,,,,,,,,,,,,,,,,,,,,,,,,,,,,,,,,,
,,,,,,,,,,,,,,,,,,,,3,3,2021-01-10_12h24.04.851,CL_C2S3,2020.1.3,Win32,60,,,,,h,1,0.586855,0,media/dcnb.png,1,"[1,-1,-1]",0,0,Symb,h,RT,0,0,33,2,3,99,99,h,0.586855,1,3,33,0,33,0,1,,,,,,,,,,,,,,,,,,,,,,,,,,,,,,,,,,
,,,,,,,,,,,,,,,,,,,,3,3,2021-01-10_12h24.04.851,CL_C2S3,2020.1.3,Win32,60,,,,,i,1,0.57167,2,media/dknb.png,2,"[-1,1,-1]",5,0,Symb,i,RT,0,0,34,2,3,99,99,i,0.57167,1,3,34,0,34,0,1,,,,,,,,,,,,,,,,,,,,,,,,,,,,,,,,,,
,,,,,,,,,,,,,,,,,,,,3,3,2021-01-10_12h24.04.851,CL_C2S3,2020.1.3,Win32,60,,,,,h,1,0.601185,0,media/dcnb.png,1,"[1,-1,-1]",0,0,Symb,h,RT,0,0,35,2,3,99,99,h,0.601185,1,3,35,0,35,0,1,,,,,,,,,,,,,,,,,,,,,,,,,,,,,,,,,,
,,,,,,,,,,,,,,,,,,,,3,3,2021-01-10_12h24.04.851,CL_C2S3,2020.1.3,Win32,60,,,,,u,1,0.650795,1,media/dfnb.png,2,"[-1,1,-1]",4,1,Symb,u,RT,0,0,36,2,3,99,99,u,0.650795,1,3,36,0,36,0,1,,,,,,,,,,,,,,,,,,,,,,,,,,,,,,,,,,
,,,,,,,,,,,,,,,,,,,,3,3,2021-01-10_12h24.04.851,CL_C2S3,2020.1.3,Win32,60,,,,,u,1,0.63594,2,media/dknb.png,1,"[1,-1,-1]",2,0,Symb,u,RT,0,0,37,2,3,99,99,u,0.63594,1,3,37,0,37,0,1,,,,,,,,,,,,,,,,,,,,,,,,,,,,,,,,,,
,,,,,,,,,,,,,,,,,,,,3,3,2021-01-10_12h24.04.851,CL_C2S3,2020.1.3,Win32,60,,,,,i,1,0.55418,2,media/dknb.png,2,"[-1,1,-1]",5,0,Symb,i,RT,0,0,38,2,3,99,99,i,0.55418,1,3,38,0,38,0,1,,,,,,,,,,,,,,,,,,,,,,,,,,,,,,,,,,
,,,,,,,,,,,,,,,,,,,,3,3,2021-01-10_12h24.04.851,CL_C2S3,2020.1.3,Win32,60,,,,,u,1,1.070875,2,media/dknb.png,1,"[1,-1,-1]",2,0,Symb,u,RT,0,0,39,2,3,99,99,u,1.070875,1,3,39,0,39,0,1,,,,,,,,,,,,,,,,,,,,,,,,,,,,,,,,,,
,,,,,,,,,,,,,,,,,,,,3,3,2021-01-10_12h24.04.851,CL_C2S3,2020.1.3,Win32,60,,,,,h,1,0.517505,0,media/dcnb.png,2,"[-1,1,-1]",3,0,Symb,h,RT,0,0,40,2,3,99,99,h,0.517505,1,3,40,0,40,0,1,,,,,,,,,,,,,,,,,,,,,,,,,,,,,,,,,,
,,,,,,,,,,,,,,,,,,,,3,3,2021-01-10_12h24.04.851,CL_C2S3,2020.1.3,Win32,60,,,,,i,1,0.71916,1,media/dfnb.png,1,"[1,-1,-1]",1,1,Symb,i,RT,0,0,41,2,3,99,99,i,0.71916,1,3,41,0,41,0,1,,,,,,,,,,,,,,,,,,,,,,,,,,,,,,,,,,
,,,,,,,,,,,,,,,,,,,,3,3,2021-01-10_12h24.04.851,CL_C2S3,2020.1.3,Win32,60,,,,,h,1,0.55263,0,media/dcnb.png,2,"[-1,1,-1]",3,0,Symb,h,RT,0,0,42,2,3,99,99,h,0.55263,1,3,42,0,42,0,1,,,,,,,,,,,,,,,,,,,,,,,,,,,,,,,,,,
,,,,,,,,,,,,,,,,,,,,3,3,2021-01-10_12h24.04.851,CL_C2S3,2020.1.3,Win32,60,,,,,u,1,0.556245,1,media/dfnb.png,2,"[-1,1,-1]",4,1,Symb,u,RT,0,0,43,2,3,99,99,u,0.556245,1,3,43,0,43,0,1,,,,,,,,,,,,,,,,,,,,,,,,,,,,,,,,,,
,,,,,,,,,,,,,,,,,,,,3,3,2021-01-10_12h24.04.851,CL_C2S3,2020.1.3,Win32,60,,,,,h,1,0.5699,0,media/dcnb.png,1,"[1,-1,-1]",0,0,Symb,h,RT,0,0,44,2,3,99,99,h,0.5699,1,3,44,0,44,0,1,,,,,,,,,,,,,,,,,,,,,,,,,,,,,,,,,,
,,,,,,,,,,,,,,,,,,,,3,3,2021-01-10_12h24.04.851,CL_C2S3,2020.1.3,Win32,60,,,,,h,1,0.468145,0,media/dcnb.png,1,"[1,-1,-1]",0,0,Symb,h,RT,0,0,45,2,3,99,99,h,0.468145,1,3,45,0,45,0,1,,,,,,,,,,,,,,,,,,,,,,,,,,,,,,,,,,
,,,,,,,,,,,,,,,,,,,,3,3,2021-01-10_12h24.04.851,CL_C2S3,2020.1.3,Win32,60,,,,,i,1,0.65316,1,media/dfnb.png,1,"[1,-1,-1]",1,1,Symb,i,RT,0,0,46,2,3,99,99,i,0.65316,1,3,46,0,46,0,1,,,,,,,,,,,,,,,,,,,,,,,,,,,,,,,,,,
,,,,,,,,,,,,,,,,,,,,3,3,2021-01-10_12h24.04.851,CL_C2S3,2020.1.3,Win32,60,,,,,u,1,0.56418,1,media/dfnb.png,2,"[-1,1,-1]",4,1,Symb,u,RT,0,0,47,2,3,99,99,u,0.56418,1,3,47,0,47,0,1,,,,,,,,,,,,,,,,,,,,,,,,,,,,,,,,,,
,,,,,,,,,,,,,,,,,,,,3,3,2021-01-10_12h24.04.851,CL_C2S3,2020.1.3,Win32,60,,,,,u,1,0.60107,2,media/dknb.png,1,"[1,-1,-1]",2,0,Symb,u,RT,0,0,48,2,3,99,99,u,0.60107,1,3,48,0,48,0,1,,,,,,,,,,,,,,,,,,,,,,,,,,,,,,,,,,
,,,,,,,,,,,,,,,,,,,,3,3,2021-01-10_12h24.04.851,CL_C2S3,2020.1.3,Win32,60,,,,,i,1,0.73924,1,media/dfnb.png,1,"[1,-1,-1]",1,1,Symb,i,RT,0,0,49,2,3,99,99,i,0.73924,1,3,49,0,49,0,1,,,,,,,,,,,,,,,,,,,,,,,,,,,,,,,,,,
,,,,,,,,,,,,,,,,,,,,3,3,2021-01-10_12h24.04.851,CL_C2S3,2020.1.3,Win32,60,,,,,u,1,1.21786,2,media/dknb.png,1,"[1,-1,-1]",2,0,Symb,u,RT,0,0,50,2,3,99,99,u,1.21786,1,3,50,0,50,0,1,,,,,,,,,,,,,,,,,,,,,,,,,,,,,,,,,,
,,,,,,,,,,,,,,,,,,,,3,3,2021-01-10_12h24.04.851,CL_C2S3,2020.1.3,Win32,60,,,,,i,1,0.585395,2,media/dknb.png,2,"[-1,1,-1]",5,0,Symb,i,RT,0,0,51,2,3,99,99,i,0.585395,1,3,51,0,51,0,1,,,,,,,,,,,,,,,,,,,,,,,,,,,,,,,,,,
,,,,,,,,,,,,,,,,,,,,3,3,2021-01-10_12h24.04.851,CL_C2S3,2020.1.3,Win32,60,,,,,i,1,0.603115,2,media/dknb.png,2,"[-1,1,-1]",5,0,Symb,i,RT,0,0,52,2,3,99,99,i,0.603115,1,3,52,0,52,0,1,,,,,,,,,,,,,,,,,,,,,,,,,,,,,,,,,,
,,,,,,,,,,,,,,,,,,,,3,3,2021-01-10_12h24.04.851,CL_C2S3,2020.1.3,Win32,60,,,,,h,1,0.504075,0,media/dcnb.png,2,"[-1,1,-1]",3,0,Symb,h,RT,0,0,53,2,3,99,99,h,0.504075,1,3,53,0,53,0,1,,,,,,,,,,,,,,,,,,,,,,,,,,,,,,,,,,
,,,,,,,,,,,,,,,,,,,,3,3,2021-01-10_12h24.04.851,CL_C2S3,2020.1.3,Win32,60,,,,,i,1,0.591815,2,media/dknb.png,2,"[-1,1,-1]",5,0,Symb,i,RT,0,0,54,2,3,99,99,i,0.591815,1,3,54,0,54,0,1,,,,,,,,,,,,,,,,,,,,,,,,,,,,,,,,,,
,,,,,,,,,,,,,,,,,,,,3,3,2021-01-10_12h24.04.851,CL_C2S3,2020.1.3,Win32,60,,,,,u,1,0.605835,2,media/dknb.png,1,"[1,-1,-1]",2,0,Symb,u,RT,0,0,55,2,3,99,99,u,0.605835,1,3,55,0,55,0,1,,,,,,,,,,,,,,,,,,,,,,,,,,,,,,,,,,
,,,,,,,,,,,,,,,,,,,,3,3,2021-01-10_12h24.04.851,CL_C2S3,2020.1.3,Win32,60,,,,,i,1,0.73514,1,media/dfnb.png,1,"[1,-1,-1]",1,1,Symb,i,RT,0,0,56,2,3,99,99,i,0.73514,1,3,56,0,56,0,1,,,,,,,,,,,,,,,,,,,,,,,,,,,,,,,,,,
,,,,,,,,,,,,,,,,,,,,3,3,2021-01-10_12h24.04.851,CL_C2S3,2020.1.3,Win32,60,,,,,h,1,0.554065,0,media/dcnb.png,2,"[-1,1,-1]",3,0,Symb,h,RT,0,0,57,2,3,99,99,h,0.554065,1,3,57,0,57,0,1,,,,,,,,,,,,,,,,,,,,,,,,,,,,,,,,,,
,,,,,,,,,,,,,,,,,,,,3,3,2021-01-10_12h24.04.851,CL_C2S3,2020.1.3,Win32,60,,,,,h,1,0.451,0,media/dcnb.png,1,"[1,-1,-1]",0,0,Symb,h,RT,0,0,58,2,3,99,99,h,0.451,1,3,58,0,58,0,1,,,,,,,,,,,,,,,,,,,,,,,,,,,,,,,,,,
,,,,,,,,,,,,,,,,,,,,3,3,2021-01-10_12h24.04.851,CL_C2S3,2020.1.3,Win32,60,,,,,u,1,0.60332,1,media/dfnb.png,2,"[-1,1,-1]",4,1,Symb,u,RT,0,0,59,2,3,99,99,u,0.60332,1,3,59,0,59,0,1,,,,,,,,,,,,,,,,,,,,,,,,,,,,,,,,,,
,,,,,,,,,,,,,,,,,,,,3,3,2021-01-10_12h24.04.851,CL_C2S3,2020.1.3,Win32,60,,,,,h,1,0.587095,0,media/dcnb.png,2,"[-1,1,-1]",3,0,Symb,h,RT,0,0,60,2,3,99,99,h,0.587095,1,3,60,0,60,0,1,,,,,,,,,,,,,,,,,,,,,,,,,,,,,,,,,,
,,,,,,,,,,,,,,,,,,,,3,3,2021-01-10_12h24.04.851,CL_C2S3,2020.1.3,Win32,60,,,,,u,1,0.651615,2,media/dknb.png,1,"[1,-1,-1]",2,0,Symb,u,RT,0,0,61,2,3,99,99,u,0.651615,1,3,61,0,61,0,1,,,,,,,,,,,,,,,,,,,,,,,,,,,,,,,,,,
,,,,,,,,,,,,,,,,,,,,3,3,2021-01-10_12h24.04.851,CL_C2S3,2020.1.3,Win32,60,,,,,i,1,0.731915,1,media/dfnb.png,1,"[1,-1,-1]",1,1,Symb,i,RT,0,0,62,2,3,99,99,i,0.731915,1,3,62,0,62,0,1,,,,,,,,,,,,,,,,,,,,,,,,,,,,,,,,,,
,,,,,,,,,,,,,,,,,,,,3,3,2021-01-10_12h24.04.851,CL_C2S3,2020.1.3,Win32,60,,,,,u,1,0.48531,1,media/dfnb.png,2,"[-1,1,-1]",4,1,Symb,u,RT,0,0,63,2,3,99,99,u,0.48531,1,3,63,0,63,0,1,,,,,,,,,,,,,,,,,,,,,,,,,,,,,,,,,,
,,,,,,,,,,,,,,,,,,,,3,3,2021-01-10_12h24.04.851,CL_C2S3,2020.1.3,Win32,60,,,,,i,1,0.77481,2,media/dknb.png,2,"[-1,1,-1]",5,0,Symb,i,RT,0,0,64,2,3,99,99,i,0.77481,1,3,64,0,64,0,1,,,,,,,,,,,,,,,,,,,,,,,,,,,,,,,,,,
,,,,,,,,,,,,,,,,,,,,3,3,2021-01-10_12h24.04.851,CL_C2S3,2020.1.3,Win32,60,,,,,u,1,0.601505,2,media/dknb.png,1,"[1,-1,-1]",2,0,Symb,u,RT,0,0,65,2,3,99,99,u,0.601505,1,3,65,0,65,0,1,,,,,,,,,,,,,,,,,,,,,,,,,,,,,,,,,,
,,,,,,,,,,,,,,,,,,,,3,3,2021-01-10_12h24.04.851,CL_C2S3,2020.1.3,Win32,60,,,,,h,1,0.51926,0,media/dcnb.png,1,"[1,-1,-1]",0,0,Symb,h,RT,0,0,66,2,3,99,99,h,0.51926,1,3,66,0,66,0,1,,,,,,,,,,,,,,,,,,,,,,,,,,,,,,,,,,
,,,,,,,,,,,,,,,,,,,,3,3,2021-01-10_12h24.04.851,CL_C2S3,2020.1.3,Win32,60,,,,,i,1,0.80572,1,media/dfnb.png,1,"[1,-1,-1]",1,1,Symb,i,RT,0,0,67,2,3,99,99,i,0.80572,1,3,67,0,67,0,1,,,,,,,,,,,,,,,,,,,,,,,,,,,,,,,,,,
,,,,,,,,,,,,,,,,,,,,3,3,2021-01-10_12h24.04.851,CL_C2S3,2020.1.3,Win32,60,,,,,i,1,0.86883,2,media/dknb.png,2,"[-1,1,-1]",5,0,Symb,i,RT,0,0,68,2,3,99,99,i,0.86883,1,3,68,0,68,0,1,,,,,,,,,,,,,,,,,,,,,,,,,,,,,,,,,,
,,,,,,,,,,,,,,,,,,,,3,3,2021-01-10_12h24.04.851,CL_C2S3,2020.1.3,Win32,60,,,,,h,1,0.57012,0,media/dcnb.png,2,"[-1,1,-1]",3,0,Symb,h,RT,0,0,69,2,3,99,99,h,0.57012,1,3,69,0,69,0,1,,,,,,,,,,,,,,,,,,,,,,,,,,,,,,,,,,
,,,,,,,,,,,,,,,,,,,,3,3,2021-01-10_12h24.04.851,CL_C2S3,2020.1.3,Win32,60,,,,,u,1,0.487455,1,media/dfnb.png,2,"[-1,1,-1]",4,1,Symb,u,RT,0,0,70,2,3,99,99,u,0.487455,1,3,70,0,70,0,1,,,,,,,,,,,,,,,,,,,,,,,,,,,,,,,,,,
,,,,,,,,,,,,,,,,,,,,3,3,2021-01-10_12h24.04.851,CL_C2S3,2020.1.3,Win32,60,,,,,h,1,0.58673,0,media/dcnb.png,1,"[1,-1,-1]",0,0,Symb,h,RT,0,0,71,2,3,99,99,h,0.58673,1,3,71,0,71,0,1,,,,,,,,,,,,,,,,,,,,,,,,,,,,,,,,,,
,,,,,,,,,,,,,,,,,,,,3,3,2021-01-10_12h24.04.851,CL_C2S3,2020.1.3,Win32,60,,,,,u,1,0.58772,1,media/dfnb.png,2,"[-1,1,-1]",4,1,Symb,u,RT,0,0,72,2,3,99,99,u,0.58772,1,3,72,0,72,0,1,,,,,,,,,,,,,,,,,,,,,,,,,,,,,,,,,,
,,,,,,,,,,,,,,,,,,,,3,3,2021-01-10_12h24.04.851,CL_C2S3,2020.1.3,Win32,60,,,,,u,1,0.588015,1,media/dfnb.png,2,"[-1,1,-1]",4,1,Symb,u,RT,0,0,73,2,3,99,99,u,0.588015,1,3,73,0,73,0,1,,,,,,,,,,,,,,,,,,,,,,,,,,,,,,,,,,
,,,,,,,,,,,,,,,,,,,,3,3,2021-01-10_12h24.04.851,CL_C2S3,2020.1.3,Win32,60,,,,,h,1,0.55234,0,media/dcnb.png,2,"[-1,1,-1]",3,0,Symb,h,RT,0,0,74,2,3,99,99,h,0.55234,1,3,74,0,74,0,1,,,,,,,,,,,,,,,,,,,,,,,,,,,,,,,,,,
,,,,,,,,,,,,,,,,,,,,3,3,2021-01-10_12h24.04.851,CL_C2S3,2020.1.3,Win32,60,,,,,i,1,0.552025,2,media/dknb.png,2,"[-1,1,-1]",5,0,Symb,i,RT,0,0,75,2,3,99,99,i,0.552025,1,3,75,0,75,0,1,,,,,,,,,,,,,,,,,,,,,,,,,,,,,,,,,,
,,,,,,,,,,,,,,,,,,,,3,3,2021-01-10_12h24.04.851,CL_C2S3,2020.1.3,Win32,60,,,,,i,1,1.06829,1,media/dfnb.png,1,"[1,-1,-1]",1,1,Symb,i,RT,0,0,76,2,3,99,99,i,1.06829,1,3,76,0,76,0,1,,,,,,,,,,,,,,,,,,,,,,,,,,,,,,,,,,
,,,,,,,,,,,,,,,,,,,,3,3,2021-01-10_12h24.04.851,CL_C2S3,2020.1.3,Win32,60,,,,,u,1,0.579475,2,media/dknb.png,1,"[1,-1,-1]",2,0,Symb,u,RT,0,0,77,2,3,99,99,u,0.579475,1,3,77,0,77,0,1,,,,,,,,,,,,,,,,,,,,,,,,,,,,,,,,,,
,,,,,,,,,,,,,,,,,,,,3,3,2021-01-10_12h24.04.851,CL_C2S3,2020.1.3,Win32,60,,,,,h,1,0.55178,0,media/dcnb.png,1,"[1,-1,-1]",0,0,Symb,h,RT,0,0,78,2,3,99,99,h,0.55178,1,3,78,0,78,0,1,,,,,,,,,,,,,,,,,,,,,,,,,,,,,,,,,,
,,,,,,,,,,,,,,,,,,,,3,3,2021-01-10_12h24.04.851,CL_C2S3,2020.1.3,Win32,60,,,,,h,1,0.486465,0,media/dcnb.png,1,"[1,-1,-1]",0,0,Symb,h,RT,0,0,79,2,3,99,99,h,0.486465,1,3,79,0,79,0,1,,,,,,,,,,,,,,,,,,,,,,,,,,,,,,,,,,
,,,,,,,,,,,,,,,,,,,,3,3,2021-01-10_12h24.04.851,CL_C2S3,2020.1.3,Win32,60,,,,,h,1,0.521675,0,media/dcnb.png,2,"[-1,1,-1]",3,0,Symb,h,RT,0,0,80,2,3,99,99,h,0.521675,1,3,80,0,80,0,1,,,,,,,,,,,,,,,,,,,,,,,,,,,,,,,,,,
,,,,,,,,,,,,,,,,,,,,3,3,2021-01-10_12h24.04.851,CL_C2S3,2020.1.3,Win32,60,,,,,i,1,0.653705,2,media/dknb.png,2,"[-1,1,-1]",5,0,Symb,i,RT,0,0,81,2,3,99,99,i,0.653705,1,3,81,0,81,0,1,,,,,,,,,,,,,,,,,,,,,,,,,,,,,,,,,,
,,,,,,,,,,,,,,,,,,,,3,3,2021-01-10_12h24.04.851,CL_C2S3,2020.1.3,Win32,60,,,,,i,1,0.9524,1,media/dfnb.png,1,"[1,-1,-1]",1,1,Symb,i,RT,0,0,82,2,3,99,99,i,0.9524,1,3,82,0,82,0,1,,,,,,,,,,,,,,,,,,,,,,,,,,,,,,,,,,
,,,,,,,,,,,,,,,,,,,,3,3,2021-01-10_12h24.04.851,CL_C2S3,2020.1.3,Win32,60,,,,,u,1,0.702155,2,media/dknb.png,1,"[1,-1,-1]",2,0,Symb,u,RT,0,0,83,2,3,99,99,u,0.702155,1,3,83,0,83,0,1,,,,,,,,,,,,,,,,,,,,,,,,,,,,,,,,,,
,,,,,,,,,,,,,,,,,,,,3,3,2021-01-10_12h24.04.851,CL_C2S3,2020.1.3,Win32,60,,,,,u,1,0.667855,1,media/dfnb.png,2,"[-1,1,-1]",4,1,Symb,u,RT,0,0,84,2,3,99,99,u,0.667855,1,3,84,0,84,0,1,,,,,,,,,,,,,,,,,,,,,,,,,,,,,,,,,,
,,,,,,,,,,,,,,,,,,,,3,3,2021-01-10_12h24.04.851,CL_C2S3,2020.1.3,Win32,60,,,,,h,1,0.385615,0,media/dcnb.png,2,"[-1,1,-1]",3,0,Symb,h,RT,0,0,85,2,3,99,99,h,0.385615,1,3,85,0,85,0,1,,,,,,,,,,,,,,,,,,,,,,,,,,,,,,,,,,
,,,,,,,,,,,,,,,,,,,,3,3,2021-01-10_12h24.04.851,CL_C2S3,2020.1.3,Win32,60,,,,,h,1,0.40294,0,media/dcnb.png,1,"[1,-1,-1]",0,0,Symb,h,RT,0,0,86,2,3,99,99,h,0.40294,1,3,86,0,86,0,1,,,,,,,,,,,,,,,,,,,,,,,,,,,,,,,,,,
,,,,,,,,,,,,,,,,,,,,3,3,2021-01-10_12h24.04.851,CL_C2S3,2020.1.3,Win32,60,,,,,i,1,0.84287,1,media/dfnb.png,1,"[1,-1,-1]",1,1,Symb,i,RT,0,0,87,2,3,99,99,i,0.84287,1,3,87,0,87,0,1,,,,,,,,,,,,,,,,,,,,,,,,,,,,,,,,,,
,,,,,,,,,,,,,,,,,,,,3,3,2021-01-10_12h24.04.851,CL_C2S3,2020.1.3,Win32,60,,,,,i,1,0.78673,2,media/dknb.png,2,"[-1,1,-1]",5,0,Symb,i,RT,0,0,88,2,3,99,99,i,0.78673,1,3,88,0,88,0,1,,,,,,,,,,,,,,,,,,,,,,,,,,,,,,,,,,
,,,,,,,,,,,,,,,,,,,,3,3,2021-01-10_12h24.04.851,CL_C2S3,2020.1.3,Win32,60,,,,,u,1,0.634885,2,media/dknb.png,1,"[1,-1,-1]",2,0,Symb,u,RT,0,0,89,2,3,99,99,u,0.634885,1,3,89,0,89,0,1,,,,,,,,,,,,,,,,,,,,,,,,,,,,,,,,,,
,,,,,,,,,,,,,,,,,,,,3,3,2021-01-10_12h24.04.851,CL_C2S3,2020.1.3,Win32,60,,,,,i,1,0.918885,1,media/dfnb.png,1,"[1,-1,-1]",1,1,Symb,i,RT,0,0,90,2,3,99,99,i,0.918885,1,3,90,0,90,0,1,,,,,,,,,,,,,,,,,,,,,,,,,,,,,,,,,,
,,,,,,,,,,,,,,,,,,,,3,3,2021-01-10_12h24.04.851,CL_C2S3,2020.1.3,Win32,60,,,,,u,1,0.586805,1,media/dfnb.png,2,"[-1,1,-1]",4,1,Symb,u,RT,0,0,91,2,3,99,99,u,0.586805,1,3,91,0,91,0,1,,,,,,,,,,,,,,,,,,,,,,,,,,,,,,,,,,
,,,,,,,,,,,,,,,,,,,,3,3,2021-01-10_12h24.04.851,CL_C2S3,2020.1.3,Win32,60,,,,,h,1,0.53049,0,media/dcnb.png,1,"[1,-1,-1]",0,0,Symb,h,RT,0,0,92,2,3,99,99,h,0.53049,1,3,92,0,92,0,1,,,,,,,,,,,,,,,,,,,,,,,,,,,,,,,,,,
,,,,,,,,,,,,,,,,,,,,3,3,2021-01-10_12h24.04.851,CL_C2S3,2020.1.3,Win32,60,,,,,h,1,0.40374,0,media/dcnb.png,2,"[-1,1,-1]",3,0,Symb,h,RT,0,0,93,2,3,99,99,h,0.40374,1,3,93,0,93,0,1,,,,,,,,,,,,,,,,,,,,,,,,,,,,,,,,,,
,,,,,,,,,,,,,,,,,,,,3,3,2021-01-10_12h24.04.851,CL_C2S3,2020.1.3,Win32,60,,,,,u,1,0.78899,2,media/dknb.png,1,"[1,-1,-1]",2,0,Symb,u,RT,0,0,94,2,3,99,99,u,0.78899,1,3,94,0,94,0,1,,,,,,,,,,,,,,,,,,,,,,,,,,,,,,,,,,
,,,,,,,,,,,,,,,,,,,,3,3,2021-01-10_12h24.04.851,CL_C2S3,2020.1.3,Win32,60,,,,,i,1,0.60574,2,media/dknb.png,2,"[-1,1,-1]",5,0,Symb,i,RT,0,0,95,2,3,99,99,i,0.60574,1,3,95,0,95,0,1,,,,,,,,,,,,,,,,,,,,,,,,,,,,,,,,,,
,,,,,,,,,,,,,,,,,,,,3,3,2021-01-10_12h24.04.851,CL_C2S3,2020.1.3,Win32,60,,,,,h,1,0.61748,0,media/dcnb.png,2,"[-1,1,-1]",3,0,Symb,h,RT,0,0,96,2,3,99,99,h,0.61748,1,3,96,0,96,0,1,,,,,,,,,,,,,,,,,,,,,,,,,,,,,,,,,,
,,,,,,,,,,,,,,,,,,,,3,3,2021-01-10_12h24.04.851,CL_C2S3,2020.1.3,Win32,60,,,,,u,1,0.804095,1,media/dfnb.png,2,"[-1,1,-1]",4,1,Symb,u,RT,0,0,97,2,3,99,99,u,0.804095,1,3,97,0,97,0,1,,,,,,,,,,,,,,,,,,,,,,,,,,,,,,,,,,
,,,,,,,,,,,,,,,,,,,,3,3,2021-01-10_12h24.04.851,CL_C2S3,2020.1.3,Win32,60,,,,,i,1,0.585895,1,media/dfnb.png,1,"[1,-1,-1]",1,1,Symb,i,RT,0,0,98,2,3,99,99,i,0.585895,1,3,98,0,98,0,1,,,,,,,,,,,,,,,,,,,,,,,,,,,,,,,,,,
,,,,,,,,,,,,,,,,,,,,3,3,2021-01-10_12h24.04.851,CL_C2S3,2020.1.3,Win32,60,,,,,u,1,0.60171,2,media/dknb.png,1,"[1,-1,-1]",2,0,Symb,u,RT,0,0,99,2,3,99,99,u,0.60171,1,3,99,0,99,0,1,,,,,,,,,,,,,,,,,,,,,,,,,,,,,,,,,,
,,,,,,,,,,,,,,,,,,,,3,3,2021-01-10_12h24.04.851,CL_C2S3,2020.1.3,Win32,60,,,,,h,1,0.53529,0,media/dcnb.png,1,"[1,-1,-1]",0,0,Symb,h,RT,0,0,100,2,3,99,99,h,0.53529,1,3,100,0,100,0,1,,,,,,,,,,,,,,,,,,,,,,,,,,,,,,,,,,
,,,,,,,,,,,,,,,,,,,,3,3,2021-01-10_12h24.04.851,CL_C2S3,2020.1.3,Win32,60,,,,,i,1,0.63649,2,media/dknb.png,2,"[-1,1,-1]",5,0,Symb,i,RT,0,0,101,2,3,99,99,i,0.63649,1,3,101,0,101,0,1,,,,,,,,,,,,,,,,,,,,,,,,,,,,,,,,,,
,,,,,,,,,,,,,,,,,,,,3,3,2021-01-10_12h24.04.851,CL_C2S3,2020.1.3,Win32,60,,,,,u,1,0.90108,2,media/dknb.png,1,"[1,-1,-1]",2,0,Symb,u,RT,0,0,102,2,3,99,99,u,0.90108,1,3,102,0,102,0,1,,,,,,,,,,,,,,,,,,,,,,,,,,,,,,,,,,
,,,,,,,,,,,,,,,,,,,,3,3,2021-01-10_12h24.04.851,CL_C2S3,2020.1.3,Win32,60,,,,,h,1,0.804545,0,media/dcnb.png,1,"[1,-1,-1]",0,0,Symb,h,RT,0,0,103,2,3,99,99,h,0.804545,1,3,103,0,103,0,1,,,,,,,,,,,,,,,,,,,,,,,,,,,,,,,,,,
,,,,,,,,,,,,,,,,,,,,3,3,2021-01-10_12h24.04.851,CL_C2S3,2020.1.3,Win32,60,,,,,i,1,0.65474,1,media/dfnb.png,1,"[1,-1,-1]",1,1,Symb,i,RT,0,0,104,2,3,99,99,i,0.65474,1,3,104,0,104,0,1,,,,,,,,,,,,,,,,,,,,,,,,,,,,,,,,,,
,,,,,,,,,,,,,,,,,,,,3,3,2021-01-10_12h24.04.851,CL_C2S3,2020.1.3,Win32,60,,,,,u,1,0.65162,2,media/dknb.png,1,"[1,-1,-1]",2,0,Symb,u,RT,0,0,105,2,3,99,99,u,0.65162,1,3,105,0,105,0,1,,,,,,,,,,,,,,,,,,,,,,,,,,,,,,,,,,
,,,,,,,,,,,,,,,,,,,,3,3,2021-01-10_12h24.04.851,CL_C2S3,2020.1.3,Win32,60,,,,,i,1,0.569335,2,media/dknb.png,2,"[-1,1,-1]",5,0,Symb,i,RT,0,0,106,2,3,99,99,i,0.569335,1,3,106,0,106,0,1,,,,,,,,,,,,,,,,,,,,,,,,,,,,,,,,,,
,,,,,,,,,,,,,,,,,,,,3,3,2021-01-10_12h24.04.851,CL_C2S3,2020.1.3,Win32,60,,,,,h,1,0.55553,0,media/dcnb.png,2,"[-1,1,-1]",3,0,Symb,h,RT,0,0,107,2,3,99,99,h,0.55553,1,3,107,0,107,0,1,,,,,,,,,,,,,,,,,,,,,,,,,,,,,,,,,,
,,,,,,,,,,,,,,,,,,,,3,3,2021-01-10_12h24.04.851,CL_C2S3,2020.1.3,Win32,60,,,,,u,1,1.038355,1,media/dfnb.png,2,"[-1,1,-1]",4,1,Symb,u,RT,0,0,108,2,3,99,99,u,1.038355,1,3,108,0,108,0,1,,,,,,,,,,,,,,,,,,,,,,,,,,,,,,,,,,
,,,,,,,,,,,,,,,,,,,,3,3,2021-01-10_12h24.04.851,CL_C2S3,2020.1.3,Win32,60,,,,,u,1,0.885215,1,media/dfnb.png,2,"[-1,1,-1]",4,1,Symb,u,RT,0,0,109,2,3,99,99,u,0.885215,1,3,109,0,109,0,1,,,,,,,,,,,,,,,,,,,,,,,,,,,,,,,,,,
,,,,,,,,,,,,,,,,,,,,3,3,2021-01-10_12h24.04.851,CL_C2S3,2020.1.3,Win32,60,,,,,i,1,0.537645,1,media/dfnb.png,1,"[1,-1,-1]",1,1,Symb,i,RT,0,0,110,2,3,99,99,i,0.537645,1,3,110,0,110,0,1,,,,,,,,,,,,,,,,,,,,,,,,,,,,,,,,,,
,,,,,,,,,,,,,,,,,,,,3,3,2021-01-10_12h24.04.851,CL_C2S3,2020.1.3,Win32,60,,,,,i,1,0.701235,2,media/dknb.png,2,"[-1,1,-1]",5,0,Symb,i,RT,0,0,111,2,3,99,99,i,0.701235,1,3,111,0,111,0,1,,,,,,,,,,,,,,,,,,,,,,,,,,,,,,,,,,
,,,,,,,,,,,,,,,,,,,,3,3,2021-01-10_12h24.04.851,CL_C2S3,2020.1.3,Win32,60,,,,,h,1,0.902275,0,media/dcnb.png,2,"[-1,1,-1]",3,0,Symb,h,RT,0,0,112,2,3,99,99,h,0.902275,1,3,112,0,112,0,1,,,,,,,,,,,,,,,,,,,,,,,,,,,,,,,,,,
,,,,,,,,,,,,,,,,,,,,3,3,2021-01-10_12h24.04.851,CL_C2S3,2020.1.3,Win32,60,,,,,h,1,0.918715,0,media/dcnb.png,1,"[1,-1,-1]",0,0,Symb,h,RT,0,0,113,2,3,99,99,h,0.918715,1,3,113,0,113,0,1,,,,,,,,,,,,,,,,,,,,,,,,,,,,,,,,,,
,,,,,,,,,,,,,,,,,,,,3,3,2021-01-10_12h24.04.851,CL_C2S3,2020.1.3,Win32,60,,,,,h,1,0.708945,0,media/dcnb.png,2,"[-1,1,-1]",3,0,Symb,h,RT,0,0,114,2,3,99,99,h,0.708945,1,3,114,0,114,0,1,,,,,,,,,,,,,,,,,,,,,,,,,,,,,,,,,,
,,,,,,,,,,,,,,,,,,,,3,3,2021-01-10_12h24.04.851,CL_C2S3,2020.1.3,Win32,60,,,,,h,1,2.03889,0,media/dcnb.png,1,"[1,-1,-1]",0,0,Symb,h,RT,0,0,115,2,3,99,99,h,2.03889,1,3,115,0,115,0,1,,,,,,,,,,,,,,,,,,,,,,,,,,,,,,,,,,
,,,,,,,,,,,,,,,,,,,,3,3,2021-01-10_12h24.04.851,CL_C2S3,2020.1.3,Win32,60,,,,,u,1,0.519265,1,media/dfnb.png,2,"[-1,1,-1]",4,1,Symb,u,RT,0,0,116,2,3,99,99,u,0.519265,1,3,116,0,116,0,1,,,,,,,,,,,,,,,,,,,,,,,,,,,,,,,,,,
,,,,,,,,,,,,,,,,,,,,3,3,2021-01-10_12h24.04.851,CL_C2S3,2020.1.3,Win32,60,,,,,i,0,0.7023,2,media/dknb.png,1,"[1,-1,-1]",2,0,Symb,u,RT,0,0,117,2,3,99,99,i,0.7023,0,3,117,0,117,0,1,,,,,,,,,,,,,,,,,,,,,,,,,,,,,,,,,,
,,,,,,,,,,,,,,,,,,,,3,3,2021-01-10_12h24.04.851,CL_C2S3,2020.1.3,Win32,60,,,,,i,1,0.38675,2,media/dknb.png,2,"[-1,1,-1]",5,0,Symb,i,RT,0,0,118,2,3,99,99,i,0.38675,1,3,118,0,118,0,1,,,,,,,,,,,,,,,,,,,,,,,,,,,,,,,,,,
,,,,,,,,,,,,,,,,,,,,3,3,2021-01-10_12h24.04.851,CL_C2S3,2020.1.3,Win32,60,,,,,i,1,1.01236,1,media/dfnb.png,1,"[1,-1,-1]",1,1,Symb,i,RT,0,0,119,2,3,99,99,i,1.01236,1,3,119,0,119,0,1,,,,,,,,,,,,,,,,,,,,,,,,,,,,,,,,,,
,,,,,,,,,,,,,,,,,,,,3,3,2021-01-10_12h24.04.851,CL_C2S3,2020.1.3,Win32,60,,,,,,,,,,,,,,,,,,,,,,,,,,,,,,,,,2,0,2,0,1,,,,,,,,,,,,,,,,,,,,,,,,,,,,,
,,,,,,,,,,,,,,,,,,,,3,3,2021-01-10_12h24.04.851,CL_C2S3,2020.1.3,Win32,60,,,i,0.13457,i,1,0.519135,2,media/dknb.png,2,"[-1,1,-1]",5,0,Symb,i,RT,0,0,0,2,4,99,99,i,0.519135,1,3,0,0,0,0,1,,,,,,,,,,,,,,,,,,,,,,,,,,,,,,,,,,
,,,,,,,,,,,,,,,,,,,,3,3,2021-01-10_12h24.04.851,CL_C2S3,2020.1.3,Win32,60,,,,,h,1,0.584905,0,media/dcnb.png,2,"[-1,1,-1]",3,0,Symb,h,RT,0,0,1,2,4,99,99,h,0.584905,1,3,1,0,1,0,1,,,,,,,,,,,,,,,,,,,,,,,,,,,,,,,,,,
,,,,,,,,,,,,,,,,,,,,3,3,2021-01-10_12h24.04.851,CL_C2S3,2020.1.3,Win32,60,,,,,i,1,0.622015,2,media/dknb.png,2,"[-1,1,-1]",5,0,Symb,i,RT,0,0,2,2,4,99,99,i,0.622015,1,3,2,0,2,0,1,,,,,,,,,,,,,,,,,,,,,,,,,,,,,,,,,,
,,,,,,,,,,,,,,,,,,,,3,3,2021-01-10_12h24.04.851,CL_C2S3,2020.1.3,Win32,60,,,,,h,1,0.534455,0,media/dcnb.png,1,"[1,-1,-1]",0,0,Symb,h,RT,0,0,3,2,4,99,99,h,0.534455,1,3,3,0,3,0,1,,,,,,,,,,,,,,,,,,,,,,,,,,,,,,,,,,
,,,,,,,,,,,,,,,,,,,,3,3,2021-01-10_12h24.04.851,CL_C2S3,2020.1.3,Win32,60,,,,,i,1,0.71804,1,media/dfnb.png,1,"[1,-1,-1]",1,1,Symb,i,RT,0,0,4,2,4,99,99,i,0.71804,1,3,4,0,4,0,1,,,,,,,,,,,,,,,,,,,,,,,,,,,,,,,,,,
,,,,,,,,,,,,,,,,,,,,3,3,2021-01-10_12h24.04.851,CL_C2S3,2020.1.3,Win32,60,,,,,h,1,0.55533,0,media/dcnb.png,1,"[1,-1,-1]",0,0,Symb,h,RT,0,0,5,2,4,99,99,h,0.55533,1,3,5,0,5,0,1,,,,,,,,,,,,,,,,,,,,,,,,,,,,,,,,,,
,,,,,,,,,,,,,,,,,,,,3,3,2021-01-10_12h24.04.851,CL_C2S3,2020.1.3,Win32,60,,,,,u,1,0.58785,1,media/dfnb.png,2,"[-1,1,-1]",4,1,Symb,u,RT,0,0,6,2,4,99,99,u,0.58785,1,3,6,0,6,0,1,,,,,,,,,,,,,,,,,,,,,,,,,,,,,,,,,,
,,,,,,,,,,,,,,,,,,,,3,3,2021-01-10_12h24.04.851,CL_C2S3,2020.1.3,Win32,60,,,,,u,1,0.98494,2,media/dknb.png,1,"[1,-1,-1]",2,0,Symb,u,RT,0,0,7,2,4,99,99,u,0.98494,1,3,7,0,7,0,1,,,,,,,,,,,,,,,,,,,,,,,,,,,,,,,,,,
,,,,,,,,,,,,,,,,,,,,3,3,2021-01-10_12h24.04.851,CL_C2S3,2020.1.3,Win32,60,,,,,h,1,1.386045,0,media/dcnb.png,2,"[-1,1,-1]",3,0,Symb,h,RT,0,0,8,2,4,99,99,h,1.386045,1,3,8,0,8,0,1,,,,,,,,,,,,,,,,,,,,,,,,,,,,,,,,,,
,,,,,,,,,,,,,,,,,,,,3,3,2021-01-10_12h24.04.851,CL_C2S3,2020.1.3,Win32,60,,,,,i,1,0.735375,1,media/dfnb.png,1,"[1,-1,-1]",1,1,Symb,i,RT,0,0,9,2,4,99,99,i,0.735375,1,3,9,0,9,0,1,,,,,,,,,,,,,,,,,,,,,,,,,,,,,,,,,,
,,,,,,,,,,,,,,,,,,,,3,3,2021-01-10_12h24.04.851,CL_C2S3,2020.1.3,Win32,60,,,,,u,1,0.602845,1,media/dfnb.png,2,"[-1,1,-1]",4,1,Symb,u,RT,0,0,10,2,4,99,99,u,0.602845,1,3,10,0,10,0,1,,,,,,,,,,,,,,,,,,,,,,,,,,,,,,,,,,
,,,,,,,,,,,,,,,,,,,,3,3,2021-01-10_12h24.04.851,CL_C2S3,2020.1.3,Win32,60,,,,,i,0,0.553105,2,media/dknb.png,1,"[1,-1,-1]",2,0,Symb,u,RT,0,0,11,2,4,99,99,i,0.553105,0,3,11,0,11,0,1,,,,,,,,,,,,,,,,,,,,,,,,,,,,,,,,,,
,,,,,,,,,,,,,,,,,,,,3,3,2021-01-10_12h24.04.851,CL_C2S3,2020.1.3,Win32,60,,,,,h,1,0.73545,0,media/dcnb.png,1,"[1,-1,-1]",0,0,Symb,h,RT,0,0,12,2,4,99,99,h,0.73545,1,3,12,0,12,0,1,,,,,,,,,,,,,,,,,,,,,,,,,,,,,,,,,,
,,,,,,,,,,,,,,,,,,,,3,3,2021-01-10_12h24.04.851,CL_C2S3,2020.1.3,Win32,60,,,,,u,1,0.783875,2,media/dknb.png,1,"[1,-1,-1]",2,0,Symb,u,RT,0,0,13,2,4,99,99,u,0.783875,1,3,13,0,13,0,1,,,,,,,,,,,,,,,,,,,,,,,,,,,,,,,,,,
,,,,,,,,,,,,,,,,,,,,3,3,2021-01-10_12h24.04.851,CL_C2S3,2020.1.3,Win32,60,,,,,u,1,0.985665,1,media/dfnb.png,2,"[-1,1,-1]",4,1,Symb,u,RT,0,0,14,2,4,99,99,u,0.985665,1,3,14,0,14,0,1,,,,,,,,,,,,,,,,,,,,,,,,,,,,,,,,,,
,,,,,,,,,,,,,,,,,,,,3,3,2021-01-10_12h24.04.851,CL_C2S3,2020.1.3,Win32,60,,,,,u,1,0.700685,2,media/dknb.png,1,"[1,-1,-1]",2,0,Symb,u,RT,0,0,15,2,4,99,99,u,0.700685,1,3,15,0,15,0,1,,,,,,,,,,,,,,,,,,,,,,,,,,,,,,,,,,
,,,,,,,,,,,,,,,,,,,,3,3,2021-01-10_12h24.04.851,CL_C2S3,2020.1.3,Win32,60,,,,,h,1,0.587235,0,media/dcnb.png,2,"[-1,1,-1]",3,0,Symb,h,RT,0,0,16,2,4,99,99,h,0.587235,1,3,16,0,16,0,1,,,,,,,,,,,,,,,,,,,,,,,,,,,,,,,,,,
,,,,,,,,,,,,,,,,,,,,3,3,2021-01-10_12h24.04.851,CL_C2S3,2020.1.3,Win32,60,,,,,h,1,0.75189,0,media/dcnb.png,1,"[1,-1,-1]",0,0,Symb,h,RT,0,0,17,2,4,99,99,h,0.75189,1,3,17,0,17,0,1,,,,,,,,,,,,,,,,,,,,,,,,,,,,,,,,,,
,,,,,,,,,,,,,,,,,,,,3,3,2021-01-10_12h24.04.851,CL_C2S3,2020.1.3,Win32,60,,,,,u,1,0.659425,1,media/dfnb.png,2,"[-1,1,-1]",4,1,Symb,u,RT,0,0,18,2,4,99,99,u,0.659425,1,3,18,0,18,0,1,,,,,,,,,,,,,,,,,,,,,,,,,,,,,,,,,,
,,,,,,,,,,,,,,,,,,,,3,3,2021-01-10_12h24.04.851,CL_C2S3,2020.1.3,Win32,60,,,,,i,1,0.618025,1,media/dfnb.png,1,"[1,-1,-1]",1,1,Symb,i,RT,0,0,19,2,4,99,99,i,0.618025,1,3,19,0,19,0,1,,,,,,,,,,,,,,,,,,,,,,,,,,,,,,,,,,
,,,,,,,,,,,,,,,,,,,,3,3,2021-01-10_12h24.04.851,CL_C2S3,2020.1.3,Win32,60,,,,,h,1,0.57096,0,media/dcnb.png,2,"[-1,1,-1]",3,0,Symb,h,RT,0,0,20,2,4,99,99,h,0.57096,1,3,20,0,20,0,1,,,,,,,,,,,,,,,,,,,,,,,,,,,,,,,,,,
,,,,,,,,,,,,,,,,,,,,3,3,2021-01-10_12h24.04.851,CL_C2S3,2020.1.3,Win32,60,,,,,i,1,0.96845,2,media/dknb.png,2,"[-1,1,-1]",5,0,Symb,i,RT,0,0,21,2,4,99,99,i,0.96845,1,3,21,0,21,0,1,,,,,,,,,,,,,,,,,,,,,,,,,,,,,,,,,,
,,,,,,,,,,,,,,,,,,,,3,3,2021-01-10_12h24.04.851,CL_C2S3,2020.1.3,Win32,60,,,,,i,1,0.734675,1,media/dfnb.png,1,"[1,-1,-1]",1,1,Symb,i,RT,0,0,22,2,4,99,99,i,0.734675,1,3,22,0,22,0,1,,,,,,,,,,,,,,,,,,,,,,,,,,,,,,,,,,
,,,,,,,,,,,,,,,,,,,,3,3,2021-01-10_12h24.04.851,CL_C2S3,2020.1.3,Win32,60,,,,,i,1,0.734495,2,media/dknb.png,2,"[-1,1,-1]",5,0,Symb,i,RT,0,0,23,2,4,99,99,i,0.734495,1,3,23,0,23,0,1,,,,,,,,,,,,,,,,,,,,,,,,,,,,,,,,,,
,,,,,,,,,,,,,,,,,,,,3,3,2021-01-10_12h24.04.851,CL_C2S3,2020.1.3,Win32,60,,,,,h,1,0.598105,0,media/dcnb.png,1,"[1,-1,-1]",0,0,Symb,h,RT,0,0,24,2,4,99,99,h,0.598105,1,3,24,0,24,0,1,,,,,,,,,,,,,,,,,,,,,,,,,,,,,,,,,,
,,,,,,,,,,,,,,,,,,,,3,3,2021-01-10_12h24.04.851,CL_C2S3,2020.1.3,Win32,60,,,,,h,1,0.601695,0,media/dcnb.png,2,"[-1,1,-1]",3,0,Symb,h,RT,0,0,25,2,4,99,99,h,0.601695,1,3,25,0,25,0,1,,,,,,,,,,,,,,,,,,,,,,,,,,,,,,,,,,
,,,,,,,,,,,,,,,,,,,,3,3,2021-01-10_12h24.04.851,CL_C2S3,2020.1.3,Win32,60,,,,,i,1,0.635225,2,media/dknb.png,2,"[-1,1,-1]",5,0,Symb,i,RT,0,0,26,2,4,99,99,i,0.635225,1,3,26,0,26,0,1,,,,,,,,,,,,,,,,,,,,,,,,,,,,,,,,,,
,,,,,,,,,,,,,,,,,,,,3,3,2021-01-10_12h24.04.851,CL_C2S3,2020.1.3,Win32,60,,,,,i,1,0.802335,1,media/dfnb.png,1,"[1,-1,-1]",1,1,Symb,i,RT,0,0,27,2,4,99,99,i,0.802335,1,3,27,0,27,0,1,,,,,,,,,,,,,,,,,,,,,,,,,,,,,,,,,,
,,,,,,,,,,,,,,,,,,,,3,3,2021-01-10_12h24.04.851,CL_C2S3,2020.1.3,Win32,60,,,,,u,1,0.702855,1,media/dfnb.png,2,"[-1,1,-1]",4,1,Symb,u,RT,0,0,28,2,4,99,99,u,0.702855,1,3,28,0,28,0,1,,,,,,,,,,,,,,,,,,,,,,,,,,,,,,,,,,
,,,,,,,,,,,,,,,,,,,,3,3,2021-01-10_12h24.04.851,CL_C2S3,2020.1.3,Win32,60,,,,,u,1,0.63804,2,media/dknb.png,1,"[1,-1,-1]",2,0,Symb,u,RT,0,0,29,2,4,99,99,u,0.63804,1,3,29,0,29,0,1,,,,,,,,,,,,,,,,,,,,,,,,,,,,,,,,,,
,,,,,,,,,,,,,,,,,,,,3,3,2021-01-10_12h24.04.851,CL_C2S3,2020.1.3,Win32,60,,,,,u,1,0.71127,1,media/dfnb.png,2,"[-1,1,-1]",4,1,Symb,u,RT,0,0,30,2,4,99,99,u,0.71127,1,3,30,0,30,0,1,,,,,,,,,,,,,,,,,,,,,,,,,,,,,,,,,,
,,,,,,,,,,,,,,,,,,,,3,3,2021-01-10_12h24.04.851,CL_C2S3,2020.1.3,Win32,60,,,,,h,1,0.57215,0,media/dcnb.png,2,"[-1,1,-1]",3,0,Symb,h,RT,0,0,31,2,4,99,99,h,0.57215,1,3,31,0,31,0,1,,,,,,,,,,,,,,,,,,,,,,,,,,,,,,,,,,
,,,,,,,,,,,,,,,,,,,,3,3,2021-01-10_12h24.04.851,CL_C2S3,2020.1.3,Win32,60,,,,,i,1,0.66466,1,media/dfnb.png,1,"[1,-1,-1]",1,1,Symb,i,RT,0,0,32,2,4,99,99,i,0.66466,1,3,32,0,32,0,1,,,,,,,,,,,,,,,,,,,,,,,,,,,,,,,,,,
,,,,,,,,,,,,,,,,,,,,3,3,2021-01-10_12h24.04.851,CL_C2S3,2020.1.3,Win32,60,,,,,u,1,0.83737,2,media/dknb.png,1,"[1,-1,-1]",2,0,Symb,u,RT,0,0,33,2,4,99,99,u,0.83737,1,3,33,0,33,0,1,,,,,,,,,,,,,,,,,,,,,,,,,,,,,,,,,,
,,,,,,,,,,,,,,,,,,,,3,3,2021-01-10_12h24.04.851,CL_C2S3,2020.1.3,Win32,60,,,,,u,1,0.47854,2,media/dknb.png,1,"[1,-1,-1]",2,0,Symb,u,RT,0,0,34,2,4,99,99,u,0.47854,1,3,34,0,34,0,1,,,,,,,,,,,,,,,,,,,,,,,,,,,,,,,,,,
,,,,,,,,,,,,,,,,,,,,3,3,2021-01-10_12h24.04.851,CL_C2S3,2020.1.3,Win32,60,,,,,h,1,0.489225,0,media/dcnb.png,1,"[1,-1,-1]",0,0,Symb,h,RT,0,0,35,2,4,99,99,h,0.489225,1,3,35,0,35,0,1,,,,,,,,,,,,,,,,,,,,,,,,,,,,,,,,,,
,,,,,,,,,,,,,,,,,,,,3,3,2021-01-10_12h24.04.851,CL_C2S3,2020.1.3,Win32,60,,,,,u,0,0.98821,1,media/dfnb.png,1,"[1,-1,-1]",1,1,Symb,i,RT,0,0,36,2,4,99,99,u,0.98821,0,3,36,0,36,0,1,,,,,,,,,,,,,,,,,,,,,,,,,,,,,,,,,,
,,,,,,,,,,,,,,,,,,,,3,3,2021-01-10_12h24.04.851,CL_C2S3,2020.1.3,Win32,60,,,,,u,1,0.569615,1,media/dfnb.png,2,"[-1,1,-1]",4,1,Symb,u,RT,0,0,37,2,4,99,99,u,0.569615,1,3,37,0,37,0,1,,,,,,,,,,,,,,,,,,,,,,,,,,,,,,,,,,
,,,,,,,,,,,,,,,,,,,,3,3,2021-01-10_12h24.04.851,CL_C2S3,2020.1.3,Win32,60,,,,,i,1,0.621225,2,media/dknb.png,2,"[-1,1,-1]",5,0,Symb,i,RT,0,0,38,2,4,99,99,i,0.621225,1,3,38,0,38,0,1,,,,,,,,,,,,,,,,,,,,,,,,,,,,,,,,,,
,,,,,,,,,,,,,,,,,,,,3,3,2021-01-10_12h24.04.851,CL_C2S3,2020.1.3,Win32,60,,,,,h,1,0.584435,0,media/dcnb.png,2,"[-1,1,-1]",3,0,Symb,h,RT,0,0,39,2,4,99,99,h,0.584435,1,3,39,0,39,0,1,,,,,,,,,,,,,,,,,,,,,,,,,,,,,,,,,,
,,,,,,,,,,,,,,,,,,,,3,3,2021-01-10_12h24.04.851,CL_C2S3,2020.1.3,Win32,60,,,,,i,1,0.951685,2,media/dknb.png,2,"[-1,1,-1]",5,0,Symb,i,RT,0,0,40,2,4,99,99,i,0.951685,1,3,40,0,40,0,1,,,,,,,,,,,,,,,,,,,,,,,,,,,,,,,,,,
,,,,,,,,,,,,,,,,,,,,3,3,2021-01-10_12h24.04.851,CL_C2S3,2020.1.3,Win32,60,,,,,h,1,0.651455,0,media/dcnb.png,1,"[1,-1,-1]",0,0,Symb,h,RT,0,0,41,2,4,99,99,h,0.651455,1,3,41,0,41,0,1,,,,,,,,,,,,,,,,,,,,,,,,,,,,,,,,,,
,,,,,,,,,,,,,,,,,,,,3,3,2021-01-10_12h24.04.851,CL_C2S3,2020.1.3,Win32,60,,,,,i,1,0.68739,2,media/dknb.png,2,"[-1,1,-1]",5,0,Symb,i,RT,0,0,42,2,4,99,99,i,0.68739,1,3,42,0,42,0,1,,,,,,,,,,,,,,,,,,,,,,,,,,,,,,,,,,
,,,,,,,,,,,,,,,,,,,,3,3,2021-01-10_12h24.04.851,CL_C2S3,2020.1.3,Win32,60,,,,,i,1,1.605415,1,media/dfnb.png,1,"[1,-1,-1]",1,1,Symb,i,RT,0,0,43,2,4,99,99,i,1.605415,1,3,43,0,43,0,1,,,,,,,,,,,,,,,,,,,,,,,,,,,,,,,,,,
,,,,,,,,,,,,,,,,,,,,3,3,2021-01-10_12h24.04.851,CL_C2S3,2020.1.3,Win32,60,,,,,h,1,0.571545,0,media/dcnb.png,2,"[-1,1,-1]",3,0,Symb,h,RT,0,0,44,2,4,99,99,h,0.571545,1,3,44,0,44,0,1,,,,,,,,,,,,,,,,,,,,,,,,,,,,,,,,,,
,,,,,,,,,,,,,,,,,,,,3,3,2021-01-10_12h24.04.851,CL_C2S3,2020.1.3,Win32,60,,,,,h,1,0.517885,0,media/dcnb.png,1,"[1,-1,-1]",0,0,Symb,h,RT,0,0,45,2,4,99,99,h,0.517885,1,3,45,0,45,0,1,,,,,,,,,,,,,,,,,,,,,,,,,,,,,,,,,,
,,,,,,,,,,,,,,,,,,,,3,3,2021-01-10_12h24.04.851,CL_C2S3,2020.1.3,Win32,60,,,,,i,1,1.78728,1,media/dfnb.png,1,"[1,-1,-1]",1,1,Symb,i,RT,0,0,46,2,4,99,99,i,1.78728,1,3,46,0,46,0,1,,,,,,,,,,,,,,,,,,,,,,,,,,,,,,,,,,
,,,,,,,,,,,,,,,,,,,,3,3,2021-01-10_12h24.04.851,CL_C2S3,2020.1.3,Win32,60,,,,,i,1,0.50506,2,media/dknb.png,2,"[-1,1,-1]",5,0,Symb,i,RT,0,0,47,2,4,99,99,i,0.50506,1,3,47,0,47,0,1,,,,,,,,,,,,,,,,,,,,,,,,,,,,,,,,,,
,,,,,,,,,,,,,,,,,,,,3,3,2021-01-10_12h24.04.851,CL_C2S3,2020.1.3,Win32,60,,,,,u,1,0.70852,2,media/dknb.png,1,"[1,-1,-1]",2,0,Symb,u,RT,0,0,48,2,4,99,99,u,0.70852,1,3,48,0,48,0,1,,,,,,,,,,,,,,,,,,,,,,,,,,,,,,,,,,
,,,,,,,,,,,,,,,,,,,,3,3,2021-01-10_12h24.04.851,CL_C2S3,2020.1.3,Win32,60,,,,,u,1,0.53937,1,media/dfnb.png,2,"[-1,1,-1]",4,1,Symb,u,RT,0,0,49,2,4,99,99,u,0.53937,1,3,49,0,49,0,1,,,,,,,,,,,,,,,,,,,,,,,,,,,,,,,,,,
,,,,,,,,,,,,,,,,,,,,3,3,2021-01-10_12h24.04.851,CL_C2S3,2020.1.3,Win32,60,,,,,u,1,0.467905,1,media/dfnb.png,2,"[-1,1,-1]",4,1,Symb,u,RT,0,0,50,2,4,99,99,u,0.467905,1,3,50,0,50,0,1,,,,,,,,,,,,,,,,,,,,,,,,,,,,,,,,,,
,,,,,,,,,,,,,,,,,,,,3,3,2021-01-10_12h24.04.851,CL_C2S3,2020.1.3,Win32,60,,,,,h,1,0.522335,0,media/dcnb.png,1,"[1,-1,-1]",0,0,Symb,h,RT,0,0,51,2,4,99,99,h,0.522335,1,3,51,0,51,0,1,,,,,,,,,,,,,,,,,,,,,,,,,,,,,,,,,,
,,,,,,,,,,,,,,,,,,,,3,3,2021-01-10_12h24.04.851,CL_C2S3,2020.1.3,Win32,60,,,,,u,1,0.888825,2,media/dknb.png,1,"[1,-1,-1]",2,0,Symb,u,RT,0,0,52,2,4,99,99,u,0.888825,1,3,52,0,52,0,1,,,,,,,,,,,,,,,,,,,,,,,,,,,,,,,,,,
,,,,,,,,,,,,,,,,,,,,3,3,2021-01-10_12h24.04.851,CL_C2S3,2020.1.3,Win32,60,,,,,h,1,0.50415,0,media/dcnb.png,2,"[-1,1,-1]",3,0,Symb,h,RT,0,0,53,2,4,99,99,h,0.50415,1,3,53,0,53,0,1,,,,,,,,,,,,,,,,,,,,,,,,,,,,,,,,,,
,,,,,,,,,,,,,,,,,,,,3,3,2021-01-10_12h24.04.851,CL_C2S3,2020.1.3,Win32,60,,,,,i,1,0.63884,2,media/dknb.png,2,"[-1,1,-1]",5,0,Symb,i,RT,0,0,54,2,4,99,99,i,0.63884,1,3,54,0,54,0,1,,,,,,,,,,,,,,,,,,,,,,,,,,,,,,,,,,
,,,,,,,,,,,,,,,,,,,,3,3,2021-01-10_12h24.04.851,CL_C2S3,2020.1.3,Win32,60,,,,,h,1,0.538965,0,media/dcnb.png,2,"[-1,1,-1]",3,0,Symb,h,RT,0,0,55,2,4,99,99,h,0.538965,1,3,55,0,55,0,1,,,,,,,,,,,,,,,,,,,,,,,,,,,,,,,,,,
,,,,,,,,,,,,,,,,,,,,3,3,2021-01-10_12h24.04.851,CL_C2S3,2020.1.3,Win32,60,,,,,h,1,0.618695,0,media/dcnb.png,1,"[1,-1,-1]",0,0,Symb,h,RT,0,0,56,2,4,99,99,h,0.618695,1,3,56,0,56,0,1,,,,,,,,,,,,,,,,,,,,,,,,,,,,,,,,,,
,,,,,,,,,,,,,,,,,,,,3,3,2021-01-10_12h24.04.851,CL_C2S3,2020.1.3,Win32,60,,,,,u,1,0.68668,1,media/dfnb.png,2,"[-1,1,-1]",4,1,Symb,u,RT,0,0,57,2,4,99,99,u,0.68668,1,3,57,0,57,0,1,,,,,,,,,,,,,,,,,,,,,,,,,,,,,,,,,,
,,,,,,,,,,,,,,,,,,,,3,3,2021-01-10_12h24.04.851,CL_C2S3,2020.1.3,Win32,60,,,,,i,1,0.65366,1,media/dfnb.png,1,"[1,-1,-1]",1,1,Symb,i,RT,0,0,58,2,4,99,99,i,0.65366,1,3,58,0,58,0,1,,,,,,,,,,,,,,,,,,,,,,,,,,,,,,,,,,
,,,,,,,,,,,,,,,,,,,,3,3,2021-01-10_12h24.04.851,CL_C2S3,2020.1.3,Win32,60,,,,,u,1,0.937595,2,media/dknb.png,1,"[1,-1,-1]",2,0,Symb,u,RT,0,0,59,2,4,99,99,u,0.937595,1,3,59,0,59,0,1,,,,,,,,,,,,,,,,,,,,,,,,,,,,,,,,,,
,,,,,,,,,,,,,,,,,,,,3,3,2021-01-10_12h24.04.851,CL_C2S3,2020.1.3,Win32,60,,,,,u,1,0.65456,1,media/dfnb.png,2,"[-1,1,-1]",4,1,Symb,u,RT,0,0,60,2,4,99,99,u,0.65456,1,3,60,0,60,0,1,,,,,,,,,,,,,,,,,,,,,,,,,,,,,,,,,,
,,,,,,,,,,,,,,,,,,,,3,3,2021-01-10_12h24.04.851,CL_C2S3,2020.1.3,Win32,60,,,,,h,1,0.551945,0,media/dcnb.png,2,"[-1,1,-1]",3,0,Symb,h,RT,0,0,61,2,4,99,99,h,0.551945,1,3,61,0,61,0,1,,,,,,,,,,,,,,,,,,,,,,,,,,,,,,,,,,
,,,,,,,,,,,,,,,,,,,,3,3,2021-01-10_12h24.04.851,CL_C2S3,2020.1.3,Win32,60,,,,,h,1,0.420955,0,media/dcnb.png,2,"[-1,1,-1]",3,0,Symb,h,RT,0,0,62,2,4,99,99,h,0.420955,1,3,62,0,62,0,1,,,,,,,,,,,,,,,,,,,,,,,,,,,,,,,,,,
,,,,,,,,,,,,,,,,,,,,3,3,2021-01-10_12h24.04.851,CL_C2S3,2020.1.3,Win32,60,,,,,h,1,0.49401,0,media/dcnb.png,1,"[1,-1,-1]",0,0,Symb,h,RT,0,0,63,2,4,99,99,h,0.49401,1,3,63,0,63,0,1,,,,,,,,,,,,,,,,,,,,,,,,,,,,,,,,,,
,,,,,,,,,,,,,,,,,,,,3,3,2021-01-10_12h24.04.851,CL_C2S3,2020.1.3,Win32,60,,,,,u,1,0.618045,1,media/dfnb.png,2,"[-1,1,-1]",4,1,Symb,u,RT,0,0,64,2,4,99,99,u,0.618045,1,3,64,0,64,0,1,,,,,,,,,,,,,,,,,,,,,,,,,,,,,,,,,,
,,,,,,,,,,,,,,,,,,,,3,3,2021-01-10_12h24.04.851,CL_C2S3,2020.1.3,Win32,60,,,,,i,1,1.001205,2,media/dknb.png,2,"[-1,1,-1]",5,0,Symb,i,RT,0,0,65,2,4,99,99,i,1.001205,1,3,65,0,65,0,1,,,,,,,,,,,,,,,,,,,,,,,,,,,,,,,,,,
,,,,,,,,,,,,,,,,,,,,3,3,2021-01-10_12h24.04.851,CL_C2S3,2020.1.3,Win32,60,,,,,u,1,0.68605,2,media/dknb.png,1,"[1,-1,-1]",2,0,Symb,u,RT,0,0,66,2,4,99,99,u,0.68605,1,3,66,0,66,0,1,,,,,,,,,,,,,,,,,,,,,,,,,,,,,,,,,,
,,,,,,,,,,,,,,,,,,,,3,3,2021-01-10_12h24.04.851,CL_C2S3,2020.1.3,Win32,60,,,,,i,1,1.136185,1,media/dfnb.png,1,"[1,-1,-1]",1,1,Symb,i,RT,0,0,67,2,4,99,99,i,1.136185,1,3,67,0,67,0,1,,,,,,,,,,,,,,,,,,,,,,,,,,,,,,,,,,
,,,,,,,,,,,,,,,,,,,,3,3,2021-01-10_12h24.04.851,CL_C2S3,2020.1.3,Win32,60,,,,,i,1,0.55388,1,media/dfnb.png,1,"[1,-1,-1]",1,1,Symb,i,RT,0,0,68,2,4,99,99,i,0.55388,1,3,68,0,68,0,1,,,,,,,,,,,,,,,,,,,,,,,,,,,,,,,,,,
,,,,,,,,,,,,,,,,,,,,3,3,2021-01-10_12h24.04.851,CL_C2S3,2020.1.3,Win32,60,,,,,i,1,0.603565,2,media/dknb.png,2,"[-1,1,-1]",5,0,Symb,i,RT,0,0,69,2,4,99,99,i,0.603565,1,3,69,0,69,0,1,,,,,,,,,,,,,,,,,,,,,,,,,,,,,,,,,,
,,,,,,,,,,,,,,,,,,,,3,3,2021-01-10_12h24.04.851,CL_C2S3,2020.1.3,Win32,60,,,,,u,1,0.60444,2,media/dknb.png,1,"[1,-1,-1]",2,0,Symb,u,RT,0,0,70,2,4,99,99,u,0.60444,1,3,70,0,70,0,1,,,,,,,,,,,,,,,,,,,,,,,,,,,,,,,,,,
,,,,,,,,,,,,,,,,,,,,3,3,2021-01-10_12h24.04.851,CL_C2S3,2020.1.3,Win32,60,,,,,h,1,0.53873,0,media/dcnb.png,1,"[1,-1,-1]",0,0,Symb,h,RT,0,0,71,2,4,99,99,h,0.53873,1,3,71,0,71,0,1,,,,,,,,,,,,,,,,,,,,,,,,,,,,,,,,,,
,,,,,,,,,,,,,,,,,,,,3,3,2021-01-10_12h24.04.851,CL_C2S3,2020.1.3,Win32,60,,,,,i,1,1.00206,1,media/dfnb.png,1,"[1,-1,-1]",1,1,Symb,i,RT,0,0,72,2,4,99,99,i,1.00206,1,3,72,0,72,0,1,,,,,,,,,,,,,,,,,,,,,,,,,,,,,,,,,,
,,,,,,,,,,,,,,,,,,,,3,3,2021-01-10_12h24.04.851,CL_C2S3,2020.1.3,Win32,60,,,,,u,1,0.838225,2,media/dknb.png,1,"[1,-1,-1]",2,0,Symb,u,RT,0,0,73,2,4,99,99,u,0.838225,1,3,73,0,73,0,1,,,,,,,,,,,,,,,,,,,,,,,,,,,,,,,,,,
,,,,,,,,,,,,,,,,,,,,3,3,2021-01-10_12h24.04.851,CL_C2S3,2020.1.3,Win32,60,,,,,u,1,0.93505,2,media/dknb.png,1,"[1,-1,-1]",2,0,Symb,u,RT,0,0,74,2,4,99,99,u,0.93505,1,3,74,0,74,0,1,,,,,,,,,,,,,,,,,,,,,,,,,,,,,,,,,,
,,,,,,,,,,,,,,,,,,,,3,3,2021-01-10_12h24.04.851,CL_C2S3,2020.1.3,Win32,60,,,,,i,1,0.77195,2,media/dknb.png,2,"[-1,1,-1]",5,0,Symb,i,RT,0,0,75,2,4,99,99,i,0.77195,1,3,75,0,75,0,1,,,,,,,,,,,,,,,,,,,,,,,,,,,,,,,,,,
,,,,,,,,,,,,,,,,,,,,3,3,2021-01-10_12h24.04.851,CL_C2S3,2020.1.3,Win32,60,,,,,u,1,0.91945,1,media/dfnb.png,2,"[-1,1,-1]",4,1,Symb,u,RT,0,0,76,2,4,99,99,u,0.91945,1,3,76,0,76,0,1,,,,,,,,,,,,,,,,,,,,,,,,,,,,,,,,,,
,,,,,,,,,,,,,,,,,,,,3,3,2021-01-10_12h24.04.851,CL_C2S3,2020.1.3,Win32,60,,,,,h,1,0.535385,0,media/dcnb.png,2,"[-1,1,-1]",3,0,Symb,h,RT,0,0,77,2,4,99,99,h,0.535385,1,3,77,0,77,0,1,,,,,,,,,,,,,,,,,,,,,,,,,,,,,,,,,,
,,,,,,,,,,,,,,,,,,,,3,3,2021-01-10_12h24.04.851,CL_C2S3,2020.1.3,Win32,60,,,,,u,1,0.67199,1,media/dfnb.png,2,"[-1,1,-1]",4,1,Symb,u,RT,0,0,78,2,4,99,99,u,0.67199,1,3,78,0,78,0,1,,,,,,,,,,,,,,,,,,,,,,,,,,,,,,,,,,
,,,,,,,,,,,,,,,,,,,,3,3,2021-01-10_12h24.04.851,CL_C2S3,2020.1.3,Win32,60,,,,,i,1,0.588095,2,media/dknb.png,2,"[-1,1,-1]",5,0,Symb,i,RT,0,0,79,2,4,99,99,i,0.588095,1,3,79,0,79,0,1,,,,,,,,,,,,,,,,,,,,,,,,,,,,,,,,,,
,,,,,,,,,,,,,,,,,,,,3,3,2021-01-10_12h24.04.851,CL_C2S3,2020.1.3,Win32,60,,,,,h,1,0.53929,0,media/dcnb.png,1,"[1,-1,-1]",0,0,Symb,h,RT,0,0,80,2,4,99,99,h,0.53929,1,3,80,0,80,0,1,,,,,,,,,,,,,,,,,,,,,,,,,,,,,,,,,,
,,,,,,,,,,,,,,,,,,,,3,3,2021-01-10_12h24.04.851,CL_C2S3,2020.1.3,Win32,60,,,,,i,1,0.854925,1,media/dfnb.png,1,"[1,-1,-1]",1,1,Symb,i,RT,0,0,81,2,4,99,99,i,0.854925,1,3,81,0,81,0,1,,,,,,,,,,,,,,,,,,,,,,,,,,,,,,,,,,
,,,,,,,,,,,,,,,,,,,,3,3,2021-01-10_12h24.04.851,CL_C2S3,2020.1.3,Win32,60,,,,,h,1,0.55576,0,media/dcnb.png,1,"[1,-1,-1]",0,0,Symb,h,RT,0,0,82,2,4,99,99,h,0.55576,1,3,82,0,82,0,1,,,,,,,,,,,,,,,,,,,,,,,,,,,,,,,,,,
,,,,,,,,,,,,,,,,,,,,3,3,2021-01-10_12h24.04.851,CL_C2S3,2020.1.3,Win32,60,,,,,h,1,0.470835,0,media/dcnb.png,2,"[-1,1,-1]",3,0,Symb,h,RT,0,0,83,2,4,99,99,h,0.470835,1,3,83,0,83,0,1,,,,,,,,,,,,,,,,,,,,,,,,,,,,,,,,,,
,,,,,,,,,,,,,,,,,,,,3,3,2021-01-10_12h24.04.851,CL_C2S3,2020.1.3,Win32,60,,,,,i,1,0.57058,2,media/dknb.png,2,"[-1,1,-1]",5,0,Symb,i,RT,0,0,84,2,4,99,99,i,0.57058,1,3,84,0,84,0,1,,,,,,,,,,,,,,,,,,,,,,,,,,,,,,,,,,
,,,,,,,,,,,,,,,,,,,,3,3,2021-01-10_12h24.04.851,CL_C2S3,2020.1.3,Win32,60,,,,,h,1,0.738315,0,media/dcnb.png,1,"[1,-1,-1]",0,0,Symb,h,RT,0,0,85,2,4,99,99,h,0.738315,1,3,85,0,85,0,1,,,,,,,,,,,,,,,,,,,,,,,,,,,,,,,,,,
,,,,,,,,,,,,,,,,,,,,3,3,2021-01-10_12h24.04.851,CL_C2S3,2020.1.3,Win32,60,,,,,h,1,0.50483,0,media/dcnb.png,2,"[-1,1,-1]",3,0,Symb,h,RT,0,0,86,2,4,99,99,h,0.50483,1,3,86,0,86,0,1,,,,,,,,,,,,,,,,,,,,,,,,,,,,,,,,,,
,,,,,,,,,,,,,,,,,,,,3,3,2021-01-10_12h24.04.851,CL_C2S3,2020.1.3,Win32,60,,,,,i,1,0.94543,1,media/dfnb.png,1,"[1,-1,-1]",1,1,Symb,i,RT,0,0,87,2,4,99,99,i,0.94543,1,3,87,0,87,0,1,,,,,,,,,,,,,,,,,,,,,,,,,,,,,,,,,,
,,,,,,,,,,,,,,,,,,,,3,3,2021-01-10_12h24.04.851,CL_C2S3,2020.1.3,Win32,60,,,,,u,1,0.58742,1,media/dfnb.png,2,"[-1,1,-1]",4,1,Symb,u,RT,0,0,88,2,4,99,99,u,0.58742,1,3,88,0,88,0,1,,,,,,,,,,,,,,,,,,,,,,,,,,,,,,,,,,
,,,,,,,,,,,,,,,,,,,,3,3,2021-01-10_12h24.04.851,CL_C2S3,2020.1.3,Win32,60,,,,,u,1,0.725745,2,media/dknb.png,1,"[1,-1,-1]",2,0,Symb,u,RT,0,0,89,2,4,99,99,u,0.725745,1,3,89,0,89,0,1,,,,,,,,,,,,,,,,,,,,,,,,,,,,,,,,,,
,,,,,,,,,,,,,,,,,,,,3,3,2021-01-10_12h24.04.851,CL_C2S3,2020.1.3,Win32,60,,,,,h,1,0.55137,0,media/dcnb.png,2,"[-1,1,-1]",3,0,Symb,h,RT,0,0,90,2,4,99,99,h,0.55137,1,3,90,0,90,0,1,,,,,,,,,,,,,,,,,,,,,,,,,,,,,,,,,,
,,,,,,,,,,,,,,,,,,,,3,3,2021-01-10_12h24.04.851,CL_C2S3,2020.1.3,Win32,60,,,,,i,1,0.55896,2,media/dknb.png,2,"[-1,1,-1]",5,0,Symb,i,RT,0,0,91,2,4,99,99,i,0.55896,1,3,91,0,91,0,1,,,,,,,,,,,,,,,,,,,,,,,,,,,,,,,,,,
,,,,,,,,,,,,,,,,,,,,3,3,2021-01-10_12h24.04.851,CL_C2S3,2020.1.3,Win32,60,,,,,h,1,0.62006,0,media/dcnb.png,1,"[1,-1,-1]",0,0,Symb,h,RT,0,0,92,2,4,99,99,h,0.62006,1,3,92,0,92,0,1,,,,,,,,,,,,,,,,,,,,,,,,,,,,,,,,,,
,,,,,,,,,,,,,,,,,,,,3,3,2021-01-10_12h24.04.851,CL_C2S3,2020.1.3,Win32,60,,,,,i,1,0.804125,2,media/dknb.png,2,"[-1,1,-1]",5,0,Symb,i,RT,0,0,93,2,4,99,99,i,0.804125,1,3,93,0,93,0,1,,,,,,,,,,,,,,,,,,,,,,,,,,,,,,,,,,
,,,,,,,,,,,,,,,,,,,,3,3,2021-01-10_12h24.04.851,CL_C2S3,2020.1.3,Win32,60,,,,,u,1,0.587465,2,media/dknb.png,1,"[1,-1,-1]",2,0,Symb,u,RT,0,0,94,2,4,99,99,u,0.587465,1,3,94,0,94,0,1,,,,,,,,,,,,,,,,,,,,,,,,,,,,,,,,,,
,,,,,,,,,,,,,,,,,,,,3,3,2021-01-10_12h24.04.851,CL_C2S3,2020.1.3,Win32,60,,,,,u,1,1.00079,1,media/dfnb.png,2,"[-1,1,-1]",4,1,Symb,u,RT,0,0,95,2,4,99,99,u,1.00079,1,3,95,0,95,0,1,,,,,,,,,,,,,,,,,,,,,,,,,,,,,,,,,,
