Ctx_Color_List,stim_key_map_ctx1,stim_key_map_ctx2,stim_key_remap_ctx1,stim_key_remap_ctx2,Import_File.thisRepN,Import_File.thisTrialN,Import_File.thisN,Import_File.thisIndex,Import_File.ran,Stim,Ctx_Color,Key,KeyNum,imStim,X_Pos,Y_Pos,Hand,Check,Cross,participant,session,date,expName,psychopyVersion,OS,frameRate,Instr_Exp_Key.keys,Instr_Exp_Key.rt,Instr_Exp_Bool.thisRepN,Instr_Exp_Bool.thisTrialN,Instr_Exp_Bool.thisN,Instr_Exp_Bool.thisIndex,Instr_Exp_Bool.ran,Instr_RT_Hand_Key.keys,Instr_RT_Hand_Key.rt,RT_Press_Hand.keys,RT_Press_Hand.corr,RT_Press_Hand.rt,Symbol,Ctx,Color,Stim_Num,Key_Num,Stim_Type,True_Key,Block_Type,Remap,Repeat_Count,Trial_Count,Grp,Block_Num,Prep_Time,Ctx_Prep_Time,Actual_Press,RT,Correct,Session,RT_Iter_Hand.thisRepN,RT_Iter_Hand.thisTrialN,RT_Iter_Hand.thisN,RT_Iter_Hand.thisIndex,RT_Iter_Hand.ran,Instr_HAND_TR_press.keys,Instr_HAND_TR_press.rt,Instr_Block_Num_Press.keys,Instr_Block_Num_Press.rt,TR_Press_Hand.keys,TR_Press_Hand.corr,TR_Press_Hand.rt,TR_Feedback_Bool_Hand.thisRepN,TR_Feedback_Bool_Hand.thisTrialN,TR_Feedback_Bool_Hand.thisN,TR_Feedback_Bool_Hand.thisIndex,TR_Feedback_Bool_Hand.ran,TR_Iter_Hand.thisRepN,TR_Iter_Hand.thisTrialN,TR_Iter_Hand.thisN,TR_Iter_Hand.thisIndex,TR_Iter_Hand.ran,TR_Block_Hand.thisRepN,TR_Block_Hand.thisTrialN,TR_Block_Hand.thisN,TR_Block_Hand.thisIndex,TR_Block_Hand.ran,Instr_CR_Old_Press.keys,Instr_CR_Old_Press.rt,RT_Press.keys,RT_Press.corr,RT_Press.rt,Shape,CR_Old_Iter.thisRepN,CR_Old_Iter.thisTrialN,CR_Old_Iter.thisN,CR_Old_Iter.thisIndex,CR_Old_Iter.ran,Instr_RT_Old_Press.keys,Instr_RT_Old_Press.rt,RT_Old_Iter.thisRepN,RT_Old_Iter.thisTrialN,RT_Old_Iter.thisN,RT_Old_Iter.thisIndex,RT_Old_Iter.ran,RT_Old_Block.thisRepN,RT_Old_Block.thisTrialN,RT_Old_Block.thisN,RT_Old_Block.thisIndex,RT_Old_Block.ran,Instr_TR_Old_Press.keys,Instr_TR_Old_Press.rt,TR_Press.keys,TR_Press.corr,TR_Press.rt,TR_Feedback_Old_Bool.thisRepN,TR_Feedback_Old_Bool.thisTrialN,TR_Feedback_Old_Bool.thisN,TR_Feedback_Old_Bool.thisIndex,TR_Feedback_Old_Bool.ran,TR_Old_Iter.thisRepN,TR_Old_Iter.thisTrialN,TR_Old_Iter.thisN,TR_Old_Iter.thisIndex,TR_Old_Iter.ran,TR_Old_Block.thisRepN,TR_Old_Block.thisTrialN,TR_Old_Block.thisN,TR_Old_Block.thisIndex,TR_Old_Block.ran,TR_Penalty_Press.keys,TR_Penalty_Press.rt,TR_Penalty_Old_Bool.thisRepN,TR_Penalty_Old_Bool.thisTrialN,TR_Penalty_Old_Bool.thisN,TR_Penalty_Old_Bool.thisIndex,TR_Penalty_Old_Bool.ran,Instr_End_Exp_Key.keys,Instr_End_Exp_Key.rt
"[[1,-1,-1],[-1,1,-1]]","[0,2,1]","[0,1,2]","[0,1,2]","[0,2,1]",0,0,0,0,1,0,"[1, -1, -1]",h,0,media/dcnb.png,-0.038,0.075,media/hand.png,media/check.png,media/cross.png,3,1,2021-01-08_16h55.54.723,CL_C2S3,2020.1.3,Win32,60,,,,,,,,,,,,,,,,,,,,,,,,,,,,,,,,,,,,,,,,,,,,,,,,,,,,,,,,,,,,,,,,,,,,,,,,,,,,,,,,,,,,,,,,,,,,,,,,,,,,,,,,,,,,,,
"[[1,-1,-1],[-1,1,-1],[1,-1,-1],[-1,1,-1]]","[0,2,1]","[0,1,2]","[0,1,2]","[0,2,1]",0,1,1,1,1,1,"[-1, 1, -1]",u,1,media/dfnb.png,0.014,0.1,,,,3,1,2021-01-08_16h55.54.723,CL_C2S3,2020.1.3,Win32,60,,,,,,,,,,,,,,,,,,,,,,,,,,,,,,,,,,,,,,,,,,,,,,,,,,,,,,,,,,,,,,,,,,,,,,,,,,,,,,,,,,,,,,,,,,,,,,,,,,,,,,,,,,,,,,
"[[1,-1,-1],[-1,1,-1],[1,-1,-1],[-1,1,-1],[1,-1,-1],[-1,1,-1]]","[0,2,1]","[0,1,2]","[0,1,2]","[0,2,1]",0,2,2,2,1,2,,i,0,media/dknb.png,0.057,0.08,,,,3,1,2021-01-08_16h55.54.723,CL_C2S3,2020.1.3,Win32,60,,,,,,,,,,,,,,,,,,,,,,,,,,,,,,,,,,,,,,,,,,,,,,,,,,,,,,,,,,,,,,,,,,,,,,,,,,,,,,,,,,,,,,,,,,,,,,,,,,,,,,,,,,,,,,
,,,,,,,,,,,,,,,,,,,,3,1,2021-01-08_16h55.54.723,CL_C2S3,2020.1.3,Win32,60,space,5.420585,0,0,0,0,1,,,,,,,,,,,,,,,,,,,,,,,,,,,,,,,,,,,,,,,,,,,,,,,,,,,,,,,,,,,,,,,,,,,,,,,,,,,,,,,,,,,,,,,,,,,,,,,,,,,,,,,
,,,,,,,,,,,,,,,,,,,,3,1,2021-01-08_16h55.54.723,CL_C2S3,2020.1.3,Win32,60,,,,,,,,h,174.76154,u,1,3.851275,1,0,"[99,99,99]",1,1,Hand,u,RT,0,0,0,2,1,99,99,u,3.851275,1,1,0,0,0,0,1,,,,,,,,,,,,,,,,,,,,,,,,,,,,,,,,,,,,,,,,,,,,,,,,,,,,,,,,,,,,,,,,,,,,,,,,,,
,,,,,,,,,,,,,,,,,,,,3,1,2021-01-08_16h55.54.723,CL_C2S3,2020.1.3,Win32,60,,,,,,,,,,i,1,0.61362,2,0,"[99,99,99]",2,0,Hand,i,RT,0,0,1,2,1,99,99,i,0.61362,1,1,1,0,1,0,1,,,,,,,,,,,,,,,,,,,,,,,,,,,,,,,,,,,,,,,,,,,,,,,,,,,,,,,,,,,,,,,,,,,,,,,,,,
,,,,,,,,,,,,,,,,,,,,3,1,2021-01-08_16h55.54.723,CL_C2S3,2020.1.3,Win32,60,,,,,,,,,,i,1,0.46824,2,0,"[99,99,99]",2,0,Hand,i,RT,0,0,2,2,1,99,99,i,0.46824,1,1,2,0,2,0,1,,,,,,,,,,,,,,,,,,,,,,,,,,,,,,,,,,,,,,,,,,,,,,,,,,,,,,,,,,,,,,,,,,,,,,,,,,
,,,,,,,,,,,,,,,,,,,,3,1,2021-01-08_16h55.54.723,CL_C2S3,2020.1.3,Win32,60,,,,,,,,,,u,1,0.41768,1,0,"[99,99,99]",1,1,Hand,u,RT,0,0,3,2,1,99,99,u,0.41768,1,1,3,0,3,0,1,,,,,,,,,,,,,,,,,,,,,,,,,,,,,,,,,,,,,,,,,,,,,,,,,,,,,,,,,,,,,,,,,,,,,,,,,,
,,,,,,,,,,,,,,,,,,,,3,1,2021-01-08_16h55.54.723,CL_C2S3,2020.1.3,Win32,60,,,,,,,,,,h,1,0.36377,0,0,"[99,99,99]",0,0,Hand,h,RT,0,0,4,2,1,99,99,h,0.36377,1,1,4,0,4,0,1,,,,,,,,,,,,,,,,,,,,,,,,,,,,,,,,,,,,,,,,,,,,,,,,,,,,,,,,,,,,,,,,,,,,,,,,,,
,,,,,,,,,,,,,,,,,,,,3,1,2021-01-08_16h55.54.723,CL_C2S3,2020.1.3,Win32,60,,,,,,,,,,h,1,0.38639,0,0,"[99,99,99]",0,0,Hand,h,RT,0,0,5,2,1,99,99,h,0.38639,1,1,5,0,5,0,1,,,,,,,,,,,,,,,,,,,,,,,,,,,,,,,,,,,,,,,,,,,,,,,,,,,,,,,,,,,,,,,,,,,,,,,,,,
,,,,,,,,,,,,,,,,,,,,3,1,2021-01-08_16h55.54.723,CL_C2S3,2020.1.3,Win32,60,,,,,,,,,,h,1,0.385295,0,0,"[99,99,99]",0,0,Hand,h,RT,0,0,6,2,1,99,99,h,0.385295,1,1,6,0,6,0,1,,,,,,,,,,,,,,,,,,,,,,,,,,,,,,,,,,,,,,,,,,,,,,,,,,,,,,,,,,,,,,,,,,,,,,,,,,
,,,,,,,,,,,,,,,,,,,,3,1,2021-01-08_16h55.54.723,CL_C2S3,2020.1.3,Win32,60,,,,,,,,,,u,1,0.334195,1,0,"[99,99,99]",1,1,Hand,u,RT,0,0,7,2,1,99,99,u,0.334195,1,1,7,0,7,0,1,,,,,,,,,,,,,,,,,,,,,,,,,,,,,,,,,,,,,,,,,,,,,,,,,,,,,,,,,,,,,,,,,,,,,,,,,,
,,,,,,,,,,,,,,,,,,,,3,1,2021-01-08_16h55.54.723,CL_C2S3,2020.1.3,Win32,60,,,,,,,,,,i,1,0.34299,2,0,"[99,99,99]",2,0,Hand,i,RT,0,0,8,2,1,99,99,i,0.34299,1,1,8,0,8,0,1,,,,,,,,,,,,,,,,,,,,,,,,,,,,,,,,,,,,,,,,,,,,,,,,,,,,,,,,,,,,,,,,,,,,,,,,,,
,,,,,,,,,,,,,,,,,,,,3,1,2021-01-08_16h55.54.723,CL_C2S3,2020.1.3,Win32,60,,,,,,,,,,h,1,0.38485,0,0,"[99,99,99]",0,0,Hand,h,RT,0,0,9,2,1,99,99,h,0.38485,1,1,9,0,9,0,1,,,,,,,,,,,,,,,,,,,,,,,,,,,,,,,,,,,,,,,,,,,,,,,,,,,,,,,,,,,,,,,,,,,,,,,,,,
,,,,,,,,,,,,,,,,,,,,3,1,2021-01-08_16h55.54.723,CL_C2S3,2020.1.3,Win32,60,,,,,,,,,,u,1,0.38807,1,0,"[99,99,99]",1,1,Hand,u,RT,0,0,10,2,1,99,99,u,0.38807,1,1,10,0,10,0,1,,,,,,,,,,,,,,,,,,,,,,,,,,,,,,,,,,,,,,,,,,,,,,,,,,,,,,,,,,,,,,,,,,,,,,,,,,
,,,,,,,,,,,,,,,,,,,,3,1,2021-01-08_16h55.54.723,CL_C2S3,2020.1.3,Win32,60,,,,,,,,,,i,1,0.3419,2,0,"[99,99,99]",2,0,Hand,i,RT,0,0,11,2,1,99,99,i,0.3419,1,1,11,0,11,0,1,,,,,,,,,,,,,,,,,,,,,,,,,,,,,,,,,,,,,,,,,,,,,,,,,,,,,,,,,,,,,,,,,,,,,,,,,,
,,,,,,,,,,,,,,,,,,,,3,1,2021-01-08_16h55.54.723,CL_C2S3,2020.1.3,Win32,60,,,,,,,,,,u,1,0.45139,1,0,"[99,99,99]",1,1,Hand,u,RT,0,0,12,2,1,99,99,u,0.45139,1,1,12,0,12,0,1,,,,,,,,,,,,,,,,,,,,,,,,,,,,,,,,,,,,,,,,,,,,,,,,,,,,,,,,,,,,,,,,,,,,,,,,,,
,,,,,,,,,,,,,,,,,,,,3,1,2021-01-08_16h55.54.723,CL_C2S3,2020.1.3,Win32,60,,,,,,,,,,i,1,0.38518,2,0,"[99,99,99]",2,0,Hand,i,RT,0,0,13,2,1,99,99,i,0.38518,1,1,13,0,13,0,1,,,,,,,,,,,,,,,,,,,,,,,,,,,,,,,,,,,,,,,,,,,,,,,,,,,,,,,,,,,,,,,,,,,,,,,,,,
,,,,,,,,,,,,,,,,,,,,3,1,2021-01-08_16h55.54.723,CL_C2S3,2020.1.3,Win32,60,,,,,,,,,,h,1,0.403425,0,0,"[99,99,99]",0,0,Hand,h,RT,0,0,14,2,1,99,99,h,0.403425,1,1,14,0,14,0,1,,,,,,,,,,,,,,,,,,,,,,,,,,,,,,,,,,,,,,,,,,,,,,,,,,,,,,,,,,,,,,,,,,,,,,,,,,
,,,,,,,,,,,,,,,,,,,,3,1,2021-01-08_16h55.54.723,CL_C2S3,2020.1.3,Win32,60,,,,,,,,,,i,1,0.45125,2,0,"[99,99,99]",2,0,Hand,i,RT,0,0,15,2,1,99,99,i,0.45125,1,1,15,0,15,0,1,,,,,,,,,,,,,,,,,,,,,,,,,,,,,,,,,,,,,,,,,,,,,,,,,,,,,,,,,,,,,,,,,,,,,,,,,,
,,,,,,,,,,,,,,,,,,,,3,1,2021-01-08_16h55.54.723,CL_C2S3,2020.1.3,Win32,60,,,,,,,,,,h,1,0.36748,0,0,"[99,99,99]",0,0,Hand,h,RT,0,0,16,2,1,99,99,h,0.36748,1,1,16,0,16,0,1,,,,,,,,,,,,,,,,,,,,,,,,,,,,,,,,,,,,,,,,,,,,,,,,,,,,,,,,,,,,,,,,,,,,,,,,,,
,,,,,,,,,,,,,,,,,,,,3,1,2021-01-08_16h55.54.723,CL_C2S3,2020.1.3,Win32,60,,,,,,,,,,h,1,0.38485,0,0,"[99,99,99]",0,0,Hand,h,RT,0,0,17,2,1,99,99,h,0.38485,1,1,17,0,17,0,1,,,,,,,,,,,,,,,,,,,,,,,,,,,,,,,,,,,,,,,,,,,,,,,,,,,,,,,,,,,,,,,,,,,,,,,,,,
,,,,,,,,,,,,,,,,,,,,3,1,2021-01-08_16h55.54.723,CL_C2S3,2020.1.3,Win32,60,,,,,,,,,,u,1,0.33484,1,0,"[99,99,99]",1,1,Hand,u,RT,0,0,18,2,1,99,99,u,0.33484,1,1,18,0,18,0,1,,,,,,,,,,,,,,,,,,,,,,,,,,,,,,,,,,,,,,,,,,,,,,,,,,,,,,,,,,,,,,,,,,,,,,,,,,
,,,,,,,,,,,,,,,,,,,,3,1,2021-01-08_16h55.54.723,CL_C2S3,2020.1.3,Win32,60,,,,,,,,,,i,1,0.354695,2,0,"[99,99,99]",2,0,Hand,i,RT,0,0,19,2,1,99,99,i,0.354695,1,1,19,0,19,0,1,,,,,,,,,,,,,,,,,,,,,,,,,,,,,,,,,,,,,,,,,,,,,,,,,,,,,,,,,,,,,,,,,,,,,,,,,,
,,,,,,,,,,,,,,,,,,,,3,1,2021-01-08_16h55.54.723,CL_C2S3,2020.1.3,Win32,60,,,,,,,,,,u,1,0.41814,1,0,"[99,99,99]",1,1,Hand,u,RT,0,0,20,2,1,99,99,u,0.41814,1,1,20,0,20,0,1,,,,,,,,,,,,,,,,,,,,,,,,,,,,,,,,,,,,,,,,,,,,,,,,,,,,,,,,,,,,,,,,,,,,,,,,,,
,,,,,,,,,,,,,,,,,,,,3,1,2021-01-08_16h55.54.723,CL_C2S3,2020.1.3,Win32,60,,,,,,,,,,u,1,0.384285,1,0,"[99,99,99]",1,1,Hand,u,RT,0,0,21,2,1,99,99,u,0.384285,1,1,21,0,21,0,1,,,,,,,,,,,,,,,,,,,,,,,,,,,,,,,,,,,,,,,,,,,,,,,,,,,,,,,,,,,,,,,,,,,,,,,,,,
,,,,,,,,,,,,,,,,,,,,3,1,2021-01-08_16h55.54.723,CL_C2S3,2020.1.3,Win32,60,,,,,,,,,,h,1,0.368045,0,0,"[99,99,99]",0,0,Hand,h,RT,0,0,22,2,1,99,99,h,0.368045,1,1,22,0,22,0,1,,,,,,,,,,,,,,,,,,,,,,,,,,,,,,,,,,,,,,,,,,,,,,,,,,,,,,,,,,,,,,,,,,,,,,,,,,
,,,,,,,,,,,,,,,,,,,,3,1,2021-01-08_16h55.54.723,CL_C2S3,2020.1.3,Win32,60,,,,,,,,,,i,1,0.37216,2,0,"[99,99,99]",2,0,Hand,i,RT,0,0,23,2,1,99,99,i,0.37216,1,1,23,0,23,0,1,,,,,,,,,,,,,,,,,,,,,,,,,,,,,,,,,,,,,,,,,,,,,,,,,,,,,,,,,,,,,,,,,,,,,,,,,,
,,,,,,,,,,,,,,,,,,,,3,1,2021-01-08_16h55.54.723,CL_C2S3,2020.1.3,Win32,60,,,,,,,,,,i,1,0.371865,2,0,"[99,99,99]",2,0,Hand,i,RT,0,0,24,2,1,99,99,i,0.371865,1,1,24,0,24,0,1,,,,,,,,,,,,,,,,,,,,,,,,,,,,,,,,,,,,,,,,,,,,,,,,,,,,,,,,,,,,,,,,,,,,,,,,,,
,,,,,,,,,,,,,,,,,,,,3,1,2021-01-08_16h55.54.723,CL_C2S3,2020.1.3,Win32,60,,,,,,,,,,h,1,0.435335,0,0,"[99,99,99]",0,0,Hand,h,RT,0,0,25,2,1,99,99,h,0.435335,1,1,25,0,25,0,1,,,,,,,,,,,,,,,,,,,,,,,,,,,,,,,,,,,,,,,,,,,,,,,,,,,,,,,,,,,,,,,,,,,,,,,,,,
,,,,,,,,,,,,,,,,,,,,3,1,2021-01-08_16h55.54.723,CL_C2S3,2020.1.3,Win32,60,,,,,,,,,,u,1,0.30532,1,0,"[99,99,99]",1,1,Hand,u,RT,0,0,26,2,1,99,99,u,0.30532,1,1,26,0,26,0,1,,,,,,,,,,,,,,,,,,,,,,,,,,,,,,,,,,,,,,,,,,,,,,,,,,,,,,,,,,,,,,,,,,,,,,,,,,
,,,,,,,,,,,,,,,,,,,,3,1,2021-01-08_16h55.54.723,CL_C2S3,2020.1.3,Win32,60,,,,,,,,,,u,1,0.33759,1,0,"[99,99,99]",1,1,Hand,u,RT,0,0,27,2,1,99,99,u,0.33759,1,1,27,0,27,0,1,,,,,,,,,,,,,,,,,,,,,,,,,,,,,,,,,,,,,,,,,,,,,,,,,,,,,,,,,,,,,,,,,,,,,,,,,,
,,,,,,,,,,,,,,,,,,,,3,1,2021-01-08_16h55.54.723,CL_C2S3,2020.1.3,Win32,60,,,,,,,,,,i,1,0.35265,2,0,"[99,99,99]",2,0,Hand,i,RT,0,0,28,2,1,99,99,i,0.35265,1,1,28,0,28,0,1,,,,,,,,,,,,,,,,,,,,,,,,,,,,,,,,,,,,,,,,,,,,,,,,,,,,,,,,,,,,,,,,,,,,,,,,,,
,,,,,,,,,,,,,,,,,,,,3,1,2021-01-08_16h55.54.723,CL_C2S3,2020.1.3,Win32,60,,,,,,,,,,h,1,0.36527,0,0,"[99,99,99]",0,0,Hand,h,RT,0,0,29,2,1,99,99,h,0.36527,1,1,29,0,29,0,1,,,,,,,,,,,,,,,,,,,,,,,,,,,,,,,,,,,,,,,,,,,,,,,,,,,,,,,,,,,,,,,,,,,,,,,,,,
,,,,,,,,,,,,,,,,,,,,3,1,2021-01-08_16h55.54.723,CL_C2S3,2020.1.3,Win32,60,,,,,,,,,,h,1,0.37836,0,0,"[99,99,99]",0,0,Hand,h,RT,0,0,30,2,1,99,99,h,0.37836,1,1,30,0,30,0,1,,,,,,,,,,,,,,,,,,,,,,,,,,,,,,,,,,,,,,,,,,,,,,,,,,,,,,,,,,,,,,,,,,,,,,,,,,
,,,,,,,,,,,,,,,,,,,,3,1,2021-01-08_16h55.54.723,CL_C2S3,2020.1.3,Win32,60,,,,,,,,,,u,1,0.372325,1,0,"[99,99,99]",1,1,Hand,u,RT,0,0,31,2,1,99,99,u,0.372325,1,1,31,0,31,0,1,,,,,,,,,,,,,,,,,,,,,,,,,,,,,,,,,,,,,,,,,,,,,,,,,,,,,,,,,,,,,,,,,,,,,,,,,,
,,,,,,,,,,,,,,,,,,,,3,1,2021-01-08_16h55.54.723,CL_C2S3,2020.1.3,Win32,60,,,,,,,,,,u,1,0.33797,1,0,"[99,99,99]",1,1,Hand,u,RT,0,0,32,2,1,99,99,u,0.33797,1,1,32,0,32,0,1,,,,,,,,,,,,,,,,,,,,,,,,,,,,,,,,,,,,,,,,,,,,,,,,,,,,,,,,,,,,,,,,,,,,,,,,,,
,,,,,,,,,,,,,,,,,,,,3,1,2021-01-08_16h55.54.723,CL_C2S3,2020.1.3,Win32,60,,,,,,,,,,i,1,0.367505,2,0,"[99,99,99]",2,0,Hand,i,RT,0,0,33,2,1,99,99,i,0.367505,1,1,33,0,33,0,1,,,,,,,,,,,,,,,,,,,,,,,,,,,,,,,,,,,,,,,,,,,,,,,,,,,,,,,,,,,,,,,,,,,,,,,,,,
,,,,,,,,,,,,,,,,,,,,3,1,2021-01-08_16h55.54.723,CL_C2S3,2020.1.3,Win32,60,,,,,,,,,,h,1,0.419215,0,0,"[99,99,99]",0,0,Hand,h,RT,0,0,34,2,1,99,99,h,0.419215,1,1,34,0,34,0,1,,,,,,,,,,,,,,,,,,,,,,,,,,,,,,,,,,,,,,,,,,,,,,,,,,,,,,,,,,,,,,,,,,,,,,,,,,
,,,,,,,,,,,,,,,,,,,,3,1,2021-01-08_16h55.54.723,CL_C2S3,2020.1.3,Win32,60,,,,,,,,,,i,1,0.37191,2,0,"[99,99,99]",2,0,Hand,i,RT,0,0,35,2,1,99,99,i,0.37191,1,1,35,0,35,0,1,,,,,,,,,,,,,,,,,,,,,,,,,,,,,,,,,,,,,,,,,,,,,,,,,,,,,,,,,,,,,,,,,,,,,,,,,,
,,,,,,,,,,,,,,,,,,,,3,1,2021-01-08_16h55.54.723,CL_C2S3,2020.1.3,Win32,60,,,,,,,,,,h,1,0.40047,0,0,"[99,99,99]",0,0,Hand,h,RT,0,0,36,2,1,99,99,h,0.40047,1,1,36,0,36,0,1,,,,,,,,,,,,,,,,,,,,,,,,,,,,,,,,,,,,,,,,,,,,,,,,,,,,,,,,,,,,,,,,,,,,,,,,,,
,,,,,,,,,,,,,,,,,,,,3,1,2021-01-08_16h55.54.723,CL_C2S3,2020.1.3,Win32,60,,,,,,,,,,u,1,0.28404,1,0,"[99,99,99]",1,1,Hand,u,RT,0,0,37,2,1,99,99,u,0.28404,1,1,37,0,37,0,1,,,,,,,,,,,,,,,,,,,,,,,,,,,,,,,,,,,,,,,,,,,,,,,,,,,,,,,,,,,,,,,,,,,,,,,,,,
,,,,,,,,,,,,,,,,,,,,3,1,2021-01-08_16h55.54.723,CL_C2S3,2020.1.3,Win32,60,,,,,,,,,,i,1,0.38802,2,0,"[99,99,99]",2,0,Hand,i,RT,0,0,38,2,1,99,99,i,0.38802,1,1,38,0,38,0,1,,,,,,,,,,,,,,,,,,,,,,,,,,,,,,,,,,,,,,,,,,,,,,,,,,,,,,,,,,,,,,,,,,,,,,,,,,
,,,,,,,,,,,,,,,,,,,,3,1,2021-01-08_16h55.54.723,CL_C2S3,2020.1.3,Win32,60,,,,,,,,,,u,1,0.333885,1,0,"[99,99,99]",1,1,Hand,u,RT,0,0,39,2,1,99,99,u,0.333885,1,1,39,0,39,0,1,,,,,,,,,,,,,,,,,,,,,,,,,,,,,,,,,,,,,,,,,,,,,,,,,,,,,,,,,,,,,,,,,,,,,,,,,,
,,,,,,,,,,,,,,,,,,,,3,1,2021-01-08_16h55.54.723,CL_C2S3,2020.1.3,Win32,60,,,,,,,,,,h,1,0.36721,0,0,"[99,99,99]",0,0,Hand,h,RT,0,0,40,2,1,99,99,h,0.36721,1,1,40,0,40,0,1,,,,,,,,,,,,,,,,,,,,,,,,,,,,,,,,,,,,,,,,,,,,,,,,,,,,,,,,,,,,,,,,,,,,,,,,,,
,,,,,,,,,,,,,,,,,,,,3,1,2021-01-08_16h55.54.723,CL_C2S3,2020.1.3,Win32,60,,,,,,,,,,i,1,0.384645,2,0,"[99,99,99]",2,0,Hand,i,RT,0,0,41,2,1,99,99,i,0.384645,1,1,41,0,41,0,1,,,,,,,,,,,,,,,,,,,,,,,,,,,,,,,,,,,,,,,,,,,,,,,,,,,,,,,,,,,,,,,,,,,,,,,,,,
,,,,,,,,,,,,,,,,,,,,3,1,2021-01-08_16h55.54.723,CL_C2S3,2020.1.3,Win32,60,,,,,,,,,,u,1,0.2839,1,0,"[99,99,99]",1,1,Hand,u,RT,0,0,42,2,1,99,99,u,0.2839,1,1,42,0,42,0,1,,,,,,,,,,,,,,,,,,,,,,,,,,,,,,,,,,,,,,,,,,,,,,,,,,,,,,,,,,,,,,,,,,,,,,,,,,
,,,,,,,,,,,,,,,,,,,,3,1,2021-01-08_16h55.54.723,CL_C2S3,2020.1.3,Win32,60,,,,,,,,,,h,1,0.33536,0,0,"[99,99,99]",0,0,Hand,h,RT,0,0,43,2,1,99,99,h,0.33536,1,1,43,0,43,0,1,,,,,,,,,,,,,,,,,,,,,,,,,,,,,,,,,,,,,,,,,,,,,,,,,,,,,,,,,,,,,,,,,,,,,,,,,,
,,,,,,,,,,,,,,,,,,,,3,1,2021-01-08_16h55.54.723,CL_C2S3,2020.1.3,Win32,60,,,,,,,,,,i,1,0.460895,2,0,"[99,99,99]",2,0,Hand,i,RT,0,0,44,2,1,99,99,i,0.460895,1,1,44,0,44,0,1,,,,,,,,,,,,,,,,,,,,,,,,,,,,,,,,,,,,,,,,,,,,,,,,,,,,,,,,,,,,,,,,,,,,,,,,,,
,,,,,,,,,,,,,,,,,,,,3,1,2021-01-08_16h55.54.723,CL_C2S3,2020.1.3,Win32,60,,,,,,,,,,i,1,0.384225,2,0,"[99,99,99]",2,0,Hand,i,RT,0,0,45,2,1,99,99,i,0.384225,1,1,45,0,45,0,1,,,,,,,,,,,,,,,,,,,,,,,,,,,,,,,,,,,,,,,,,,,,,,,,,,,,,,,,,,,,,,,,,,,,,,,,,,
,,,,,,,,,,,,,,,,,,,,3,1,2021-01-08_16h55.54.723,CL_C2S3,2020.1.3,Win32,60,,,,,,,,,,h,1,0.350785,0,0,"[99,99,99]",0,0,Hand,h,RT,0,0,46,2,1,99,99,h,0.350785,1,1,46,0,46,0,1,,,,,,,,,,,,,,,,,,,,,,,,,,,,,,,,,,,,,,,,,,,,,,,,,,,,,,,,,,,,,,,,,,,,,,,,,,
,,,,,,,,,,,,,,,,,,,,3,1,2021-01-08_16h55.54.723,CL_C2S3,2020.1.3,Win32,60,,,,,,,,,,h,1,0.37137,0,0,"[99,99,99]",0,0,Hand,h,RT,0,0,47,2,1,99,99,h,0.37137,1,1,47,0,47,0,1,,,,,,,,,,,,,,,,,,,,,,,,,,,,,,,,,,,,,,,,,,,,,,,,,,,,,,,,,,,,,,,,,,,,,,,,,,
,,,,,,,,,,,,,,,,,,,,3,1,2021-01-08_16h55.54.723,CL_C2S3,2020.1.3,Win32,60,,,,,,,,,,u,1,0.321325,1,0,"[99,99,99]",1,1,Hand,u,RT,0,0,48,2,1,99,99,u,0.321325,1,1,48,0,48,0,1,,,,,,,,,,,,,,,,,,,,,,,,,,,,,,,,,,,,,,,,,,,,,,,,,,,,,,,,,,,,,,,,,,,,,,,,,,
,,,,,,,,,,,,,,,,,,,,3,1,2021-01-08_16h55.54.723,CL_C2S3,2020.1.3,Win32,60,,,,,,,,,,u,1,0.32222,1,0,"[99,99,99]",1,1,Hand,u,RT,0,0,49,2,1,99,99,u,0.32222,1,1,49,0,49,0,1,,,,,,,,,,,,,,,,,,,,,,,,,,,,,,,,,,,,,,,,,,,,,,,,,,,,,,,,,,,,,,,,,,,,,,,,,,
,,,,,,,,,,,,,,,,,,,,3,1,2021-01-08_16h55.54.723,CL_C2S3,2020.1.3,Win32,60,,,,,,,,,,i,1,0.385465,2,0,"[99,99,99]",2,0,Hand,i,RT,0,0,50,2,1,99,99,i,0.385465,1,1,50,0,50,0,1,,,,,,,,,,,,,,,,,,,,,,,,,,,,,,,,,,,,,,,,,,,,,,,,,,,,,,,,,,,,,,,,,,,,,,,,,,
,,,,,,,,,,,,,,,,,,,,3,1,2021-01-08_16h55.54.723,CL_C2S3,2020.1.3,Win32,60,,,,,,,,,,i,1,0.388555,2,0,"[99,99,99]",2,0,Hand,i,RT,0,0,51,2,1,99,99,i,0.388555,1,1,51,0,51,0,1,,,,,,,,,,,,,,,,,,,,,,,,,,,,,,,,,,,,,,,,,,,,,,,,,,,,,,,,,,,,,,,,,,,,,,,,,,
,,,,,,,,,,,,,,,,,,,,3,1,2021-01-08_16h55.54.723,CL_C2S3,2020.1.3,Win32,60,,,,,,,,,,h,1,0.33803,0,0,"[99,99,99]",0,0,Hand,h,RT,0,0,52,2,1,99,99,h,0.33803,1,1,52,0,52,0,1,,,,,,,,,,,,,,,,,,,,,,,,,,,,,,,,,,,,,,,,,,,,,,,,,,,,,,,,,,,,,,,,,,,,,,,,,,
,,,,,,,,,,,,,,,,,,,,3,1,2021-01-08_16h55.54.723,CL_C2S3,2020.1.3,Win32,60,,,,,,,,,,h,1,0.40028,0,0,"[99,99,99]",0,0,Hand,h,RT,0,0,53,2,1,99,99,h,0.40028,1,1,53,0,53,0,1,,,,,,,,,,,,,,,,,,,,,,,,,,,,,,,,,,,,,,,,,,,,,,,,,,,,,,,,,,,,,,,,,,,,,,,,,,
,,,,,,,,,,,,,,,,,,,,3,1,2021-01-08_16h55.54.723,CL_C2S3,2020.1.3,Win32,60,,,,,,,,,,i,1,0.367655,2,0,"[99,99,99]",2,0,Hand,i,RT,0,0,54,2,1,99,99,i,0.367655,1,1,54,0,54,0,1,,,,,,,,,,,,,,,,,,,,,,,,,,,,,,,,,,,,,,,,,,,,,,,,,,,,,,,,,,,,,,,,,,,,,,,,,,
,,,,,,,,,,,,,,,,,,,,3,1,2021-01-08_16h55.54.723,CL_C2S3,2020.1.3,Win32,60,,,,,,,,,,u,1,0.27021,1,0,"[99,99,99]",1,1,Hand,u,RT,0,0,55,2,1,99,99,u,0.27021,1,1,55,0,55,0,1,,,,,,,,,,,,,,,,,,,,,,,,,,,,,,,,,,,,,,,,,,,,,,,,,,,,,,,,,,,,,,,,,,,,,,,,,,
,,,,,,,,,,,,,,,,,,,,3,1,2021-01-08_16h55.54.723,CL_C2S3,2020.1.3,Win32,60,,,,,,,,,,u,1,0.33689,1,0,"[99,99,99]",1,1,Hand,u,RT,0,0,56,2,1,99,99,u,0.33689,1,1,56,0,56,0,1,,,,,,,,,,,,,,,,,,,,,,,,,,,,,,,,,,,,,,,,,,,,,,,,,,,,,,,,,,,,,,,,,,,,,,,,,,
,,,,,,,,,,,,,,,,,,,,3,1,2021-01-08_16h55.54.723,CL_C2S3,2020.1.3,Win32,60,,,,,,,,,,h,1,0.367595,0,0,"[99,99,99]",0,0,Hand,h,RT,0,0,57,2,1,99,99,h,0.367595,1,1,57,0,57,0,1,,,,,,,,,,,,,,,,,,,,,,,,,,,,,,,,,,,,,,,,,,,,,,,,,,,,,,,,,,,,,,,,,,,,,,,,,,
,,,,,,,,,,,,,,,,,,,,3,1,2021-01-08_16h55.54.723,CL_C2S3,2020.1.3,Win32,60,,,,,,,,,,i,1,0.32245,2,0,"[99,99,99]",2,0,Hand,i,RT,0,0,58,2,1,99,99,i,0.32245,1,1,58,0,58,0,1,,,,,,,,,,,,,,,,,,,,,,,,,,,,,,,,,,,,,,,,,,,,,,,,,,,,,,,,,,,,,,,,,,,,,,,,,,
,,,,,,,,,,,,,,,,,,,,3,1,2021-01-08_16h55.54.723,CL_C2S3,2020.1.3,Win32,60,,,,,,,,,,u,1,0.355155,1,0,"[99,99,99]",1,1,Hand,u,RT,0,0,59,2,1,99,99,u,0.355155,1,1,59,0,59,0,1,,,,,,,,,,,,,,,,,,,,,,,,,,,,,,,,,,,,,,,,,,,,,,,,,,,,,,,,,,,,,,,,,,,,,,,,,,
,,,,,,,,,,,,,,,,,,,,3,1,2021-01-08_16h55.54.723,CL_C2S3,2020.1.3,Win32,60,,,,,,,,,,,,,,,,,,,,,,,,,,,,,,,,,,,,,h,27.58168,h,1.551115,h,1,1.191335,0,0,0,0,1,,,,,,,,,,,,,,,,,,,,,,,,,,,,,,,,,,,,,,,,,,,,,,,,,,,,,,,,,,,,,,
,,,,,,,,,,,,,,,,,,,,3,1,2021-01-08_16h55.54.723,CL_C2S3,2020.1.3,Win32,60,,,,,,,,,,,,,0,0,"[99,99,99]",0,0,Hand,h,TR,0,0,0,2,1,0.211861663,99,h,1.191335,1,1,,,,,,,,,,,,,,,,,,0,0,0,0,1,,,,,,,,,,,,,,,,,,,,,,,,,,,,,,,,,,,,,,,,,,,,,,,,,,,,,,,,,
,,,,,,,,,,,,,,,,,,,,3,1,2021-01-08_16h55.54.723,CL_C2S3,2020.1.3,Win32,60,,,,,,,,,,,,,,,,,,,,,,,,,,,,,,,,,,,,,,,,,h,1,1.128305,0,0,0,0,1,,,,,,,,,,,,,,,,,,,,,,,,,,,,,,,,,,,,,,,,,,,,,,,,,,,,,,,,,,,,,,
,,,,,,,,,,,,,,,,,,,,3,1,2021-01-08_16h55.54.723,CL_C2S3,2020.1.3,Win32,60,,,,,,,,,,,,,0,0,"[99,99,99]",0,0,Hand,h,TR,0,0,1,2,1,0.918821282,99,h,1.128305,1,1,,,,,,,,,,,,,,,,,,1,0,1,0,1,,,,,,,,,,,,,,,,,,,,,,,,,,,,,,,,,,,,,,,,,,,,,,,,,,,,,,,,,
,,,,,,,,,,,,,,,,,,,,3,1,2021-01-08_16h55.54.723,CL_C2S3,2020.1.3,Win32,60,,,,,,,,,,,,,,,,,,,,,,,,,,,,,,,,,,,,,,,,,i,1,1.117945,0,0,0,0,1,,,,,,,,,,,,,,,,,,,,,,,,,,,,,,,,,,,,,,,,,,,,,,,,,,,,,,,,,,,,,,
,,,,,,,,,,,,,,,,,,,,3,1,2021-01-08_16h55.54.723,CL_C2S3,2020.1.3,Win32,60,,,,,,,,,,,,,2,0,"[99,99,99]",2,0,Hand,i,TR,0,0,2,2,1,0.586541451,99,i,1.117945,1,1,,,,,,,,,,,,,,,,,,2,0,2,0,1,,,,,,,,,,,,,,,,,,,,,,,,,,,,,,,,,,,,,,,,,,,,,,,,,,,,,,,,,
,,,,,,,,,,,,,,,,,,,,3,1,2021-01-08_16h55.54.723,CL_C2S3,2020.1.3,Win32,60,,,,,,,,,,,,,,,,,,,,,,,,,,,,,,,,,,,,,,,,,i,0,1.22722,0,0,0,0,1,,,,,,,,,,,,,,,,,,,,,,,,,,,,,,,,,,,,,,,,,,,,,,,,,,,,,,,,,,,,,,
,,,,,,,,,,,,,,,,,,,,3,1,2021-01-08_16h55.54.723,CL_C2S3,2020.1.3,Win32,60,,,,,,,,,,,,,1,0,"[99,99,99]",1,1,Hand,u,TR,0,0,3,2,1,0.194409781,99,i,1.22722,0,1,,,,,,,,,,,,,,,,,,3,0,3,0,1,,,,,,,,,,,,,,,,,,,,,,,,,,,,,,,,,,,,,,,,,,,,,,,,,,,,,,,,,
,,,,,,,,,,,,,,,,,,,,3,1,2021-01-08_16h55.54.723,CL_C2S3,2020.1.3,Win32,60,,,,,,,,,,,,,,,,,,,,,,,,,,,,,,,,,,,,,,,,,i,1,1.27106,0,0,0,0,1,,,,,,,,,,,,,,,,,,,,,,,,,,,,,,,,,,,,,,,,,,,,,,,,,,,,,,,,,,,,,,
,,,,,,,,,,,,,,,,,,,,3,1,2021-01-08_16h55.54.723,CL_C2S3,2020.1.3,Win32,60,,,,,,,,,,,,,2,0,"[99,99,99]",2,0,Hand,i,TR,0,0,4,2,1,0.154912966,99,i,1.27106,1,1,,,,,,,,,,,,,,,,,,4,0,4,0,1,,,,,,,,,,,,,,,,,,,,,,,,,,,,,,,,,,,,,,,,,,,,,,,,,,,,,,,,,
,,,,,,,,,,,,,,,,,,,,3,1,2021-01-08_16h55.54.723,CL_C2S3,2020.1.3,Win32,60,,,,,,,,,,,,,,,,,,,,,,,,,,,,,,,,,,,,,,,,,u,1,1.1766,0,0,0,0,1,,,,,,,,,,,,,,,,,,,,,,,,,,,,,,,,,,,,,,,,,,,,,,,,,,,,,,,,,,,,,,
,,,,,,,,,,,,,,,,,,,,3,1,2021-01-08_16h55.54.723,CL_C2S3,2020.1.3,Win32,60,,,,,,,,,,,,,1,0,"[99,99,99]",1,1,Hand,u,TR,0,0,5,2,1,0.787823107,99,u,1.1766,1,1,,,,,,,,,,,,,,,,,,5,0,5,0,1,,,,,,,,,,,,,,,,,,,,,,,,,,,,,,,,,,,,,,,,,,,,,,,,,,,,,,,,,
,,,,,,,,,,,,,,,,,,,,3,1,2021-01-08_16h55.54.723,CL_C2S3,2020.1.3,Win32,60,,,,,,,,,,,,,,,,,,,,,,,,,,,,,,,,,,,,,,,,,h,1,1.228285,0,0,0,0,1,,,,,,,,,,,,,,,,,,,,,,,,,,,,,,,,,,,,,,,,,,,,,,,,,,,,,,,,,,,,,,
,,,,,,,,,,,,,,,,,,,,3,1,2021-01-08_16h55.54.723,CL_C2S3,2020.1.3,Win32,60,,,,,,,,,,,,,0,0,"[99,99,99]",0,0,Hand,h,TR,0,0,6,2,1,1.003130795,99,h,1.228285,1,1,,,,,,,,,,,,,,,,,,6,0,6,0,1,,,,,,,,,,,,,,,,,,,,,,,,,,,,,,,,,,,,,,,,,,,,,,,,,,,,,,,,,
,,,,,,,,,,,,,,,,,,,,3,1,2021-01-08_16h55.54.723,CL_C2S3,2020.1.3,Win32,60,,,,,,,,,,,,,,,,,,,,,,,,,,,,,,,,,,,,,,,,,h,1,1.30393,0,0,0,0,1,,,,,,,,,,,,,,,,,,,,,,,,,,,,,,,,,,,,,,,,,,,,,,,,,,,,,,,,,,,,,,
,,,,,,,,,,,,,,,,,,,,3,1,2021-01-08_16h55.54.723,CL_C2S3,2020.1.3,Win32,60,,,,,,,,,,,,,0,0,"[99,99,99]",0,0,Hand,h,TR,0,0,7,2,1,0.484213879,99,h,1.30393,1,1,,,,,,,,,,,,,,,,,,7,0,7,0,1,,,,,,,,,,,,,,,,,,,,,,,,,,,,,,,,,,,,,,,,,,,,,,,,,,,,,,,,,
,,,,,,,,,,,,,,,,,,,,3,1,2021-01-08_16h55.54.723,CL_C2S3,2020.1.3,Win32,60,,,,,,,,,,,,,,,,,,,,,,,,,,,,,,,,,,,,,,,,,i,1,1.17138,0,0,0,0,1,,,,,,,,,,,,,,,,,,,,,,,,,,,,,,,,,,,,,,,,,,,,,,,,,,,,,,,,,,,,,,
,,,,,,,,,,,,,,,,,,,,3,1,2021-01-08_16h55.54.723,CL_C2S3,2020.1.3,Win32,60,,,,,,,,,,,,,2,0,"[99,99,99]",2,0,Hand,i,TR,0,0,8,2,1,1.030470628,99,i,1.17138,1,1,,,,,,,,,,,,,,,,,,8,0,8,0,1,,,,,,,,,,,,,,,,,,,,,,,,,,,,,,,,,,,,,,,,,,,,,,,,,,,,,,,,,
,,,,,,,,,,,,,,,,,,,,3,1,2021-01-08_16h55.54.723,CL_C2S3,2020.1.3,Win32,60,,,,,,,,,,,,,,,,,,,,,,,,,,,,,,,,,,,,,,,,,u,1,1.154355,0,0,0,0,1,,,,,,,,,,,,,,,,,,,,,,,,,,,,,,,,,,,,,,,,,,,,,,,,,,,,,,,,,,,,,,
,,,,,,,,,,,,,,,,,,,,3,1,2021-01-08_16h55.54.723,CL_C2S3,2020.1.3,Win32,60,,,,,,,,,,,,,1,0,"[99,99,99]",1,1,Hand,u,TR,0,0,9,2,1,0.7001989,99,u,1.154355,1,1,,,,,,,,,,,,,,,,,,9,0,9,0,1,,,,,,,,,,,,,,,,,,,,,,,,,,,,,,,,,,,,,,,,,,,,,,,,,,,,,,,,,
,,,,,,,,,,,,,,,,,,,,3,1,2021-01-08_16h55.54.723,CL_C2S3,2020.1.3,Win32,60,,,,,,,,,,,,,,,,,,,,,,,,,,,,,,,,,,,,,,,,,i,1,1.237855,0,0,0,0,1,,,,,,,,,,,,,,,,,,,,,,,,,,,,,,,,,,,,,,,,,,,,,,,,,,,,,,,,,,,,,,
,,,,,,,,,,,,,,,,,,,,3,1,2021-01-08_16h55.54.723,CL_C2S3,2020.1.3,Win32,60,,,,,,,,,,,,,2,0,"[99,99,99]",2,0,Hand,i,TR,0,0,10,2,1,0.195696052,99,i,1.237855,1,1,,,,,,,,,,,,,,,,,,10,0,10,0,1,,,,,,,,,,,,,,,,,,,,,,,,,,,,,,,,,,,,,,,,,,,,,,,,,,,,,,,,,
,,,,,,,,,,,,,,,,,,,,3,1,2021-01-08_16h55.54.723,CL_C2S3,2020.1.3,Win32,60,,,,,,,,,,,,,,,,,,,,,,,,,,,,,,,,,,,,,,,,,u,1,1.25464,0,0,0,0,1,,,,,,,,,,,,,,,,,,,,,,,,,,,,,,,,,,,,,,,,,,,,,,,,,,,,,,,,,,,,,,
,,,,,,,,,,,,,,,,,,,,3,1,2021-01-08_16h55.54.723,CL_C2S3,2020.1.3,Win32,60,,,,,,,,,,,,,1,0,"[99,99,99]",1,1,Hand,u,TR,0,0,11,2,1,0.00637936,99,u,1.25464,1,1,,,,,,,,,,,,,,,,,,11,0,11,0,1,,,,,,,,,,,,,,,,,,,,,,,,,,,,,,,,,,,,,,,,,,,,,,,,,,,,,,,,,
,,,,,,,,,,,,,,,,,,,,3,1,2021-01-08_16h55.54.723,CL_C2S3,2020.1.3,Win32,60,,,,,,,,,,,,,,,,,,,,,,,,,,,,,,,,,,,,,,,,,i,1,1.154015,0,0,0,0,1,,,,,,,,,,,,,,,,,,,,,,,,,,,,,,,,,,,,,,,,,,,,,,,,,,,,,,,,,,,,,,
,,,,,,,,,,,,,,,,,,,,3,1,2021-01-08_16h55.54.723,CL_C2S3,2020.1.3,Win32,60,,,,,,,,,,,,,2,0,"[99,99,99]",2,0,Hand,i,TR,0,0,12,2,1,1.106671617,99,i,1.154015,1,1,,,,,,,,,,,,,,,,,,12,0,12,0,1,,,,,,,,,,,,,,,,,,,,,,,,,,,,,,,,,,,,,,,,,,,,,,,,,,,,,,,,,
,,,,,,,,,,,,,,,,,,,,3,1,2021-01-08_16h55.54.723,CL_C2S3,2020.1.3,Win32,60,,,,,,,,,,,,,,,,,,,,,,,,,,,,,,,,,,,,,,,,,u,1,1.143615,0,0,0,0,1,,,,,,,,,,,,,,,,,,,,,,,,,,,,,,,,,,,,,,,,,,,,,,,,,,,,,,,,,,,,,,
,,,,,,,,,,,,,,,,,,,,3,1,2021-01-08_16h55.54.723,CL_C2S3,2020.1.3,Win32,60,,,,,,,,,,,,,1,0,"[99,99,99]",1,1,Hand,u,TR,0,0,13,2,1,1.131270432,99,u,1.143615,1,1,,,,,,,,,,,,,,,,,,13,0,13,0,1,,,,,,,,,,,,,,,,,,,,,,,,,,,,,,,,,,,,,,,,,,,,,,,,,,,,,,,,,
,,,,,,,,,,,,,,,,,,,,3,1,2021-01-08_16h55.54.723,CL_C2S3,2020.1.3,Win32,60,,,,,,,,,,,,,,,,,,,,,,,,,,,,,,,,,,,,,,,,,i,0,1.253425,0,0,0,0,1,,,,,,,,,,,,,,,,,,,,,,,,,,,,,,,,,,,,,,,,,,,,,,,,,,,,,,,,,,,,,,
,,,,,,,,,,,,,,,,,,,,3,1,2021-01-08_16h55.54.723,CL_C2S3,2020.1.3,Win32,60,,,,,,,,,,,,,0,0,"[99,99,99]",0,0,Hand,h,TR,0,0,14,2,1,0.001051186,99,i,1.253425,0,1,,,,,,,,,,,,,,,,,,14,0,14,0,1,,,,,,,,,,,,,,,,,,,,,,,,,,,,,,,,,,,,,,,,,,,,,,,,,,,,,,,,,
,,,,,,,,,,,,,,,,,,,,3,1,2021-01-08_16h55.54.723,CL_C2S3,2020.1.3,Win32,60,,,,,,,,,,,,,,,,,,,,,,,,,,,,,,,,,,,,,,,,,i,1,1.18741,0,0,0,0,1,,,,,,,,,,,,,,,,,,,,,,,,,,,,,,,,,,,,,,,,,,,,,,,,,,,,,,,,,,,,,,
,,,,,,,,,,,,,,,,,,,,3,1,2021-01-08_16h55.54.723,CL_C2S3,2020.1.3,Win32,60,,,,,,,,,,,,,2,0,"[99,99,99]",2,0,Hand,i,TR,0,0,15,2,1,0.977722,99,i,1.18741,1,1,,,,,,,,,,,,,,,,,,15,0,15,0,1,,,,,,,,,,,,,,,,,,,,,,,,,,,,,,,,,,,,,,,,,,,,,,,,,,,,,,,,,
,,,,,,,,,,,,,,,,,,,,3,1,2021-01-08_16h55.54.723,CL_C2S3,2020.1.3,Win32,60,,,,,,,,,,,,,,,,,,,,,,,,,,,,,,,,,,,,,,,,,i,0,1.271325,0,0,0,0,1,,,,,,,,,,,,,,,,,,,,,,,,,,,,,,,,,,,,,,,,,,,,,,,,,,,,,,,,,,,,,,
,,,,,,,,,,,,,,,,,,,,3,1,2021-01-08_16h55.54.723,CL_C2S3,2020.1.3,Win32,60,,,,,,,,,,,,,0,0,"[99,99,99]",0,0,Hand,h,TR,0,0,16,2,1,0.015611076,99,i,1.271325,0,1,,,,,,,,,,,,,,,,,,16,0,16,0,1,,,,,,,,,,,,,,,,,,,,,,,,,,,,,,,,,,,,,,,,,,,,,,,,,,,,,,,,,
,,,,,,,,,,,,,,,,,,,,3,1,2021-01-08_16h55.54.723,CL_C2S3,2020.1.3,Win32,60,,,,,,,,,,,,,,,,,,,,,,,,,,,,,,,,,,,,,,,,,u,1,1.25471,0,0,0,0,1,,,,,,,,,,,,,,,,,,,,,,,,,,,,,,,,,,,,,,,,,,,,,,,,,,,,,,,,,,,,,,
,,,,,,,,,,,,,,,,,,,,3,1,2021-01-08_16h55.54.723,CL_C2S3,2020.1.3,Win32,60,,,,,,,,,,,,,1,0,"[99,99,99]",1,1,Hand,u,TR,0,0,17,2,1,0.063115841,99,u,1.25471,1,1,,,,,,,,,,,,,,,,,,17,0,17,0,1,,,,,,,,,,,,,,,,,,,,,,,,,,,,,,,,,,,,,,,,,,,,,,,,,,,,,,,,,
,,,,,,,,,,,,,,,,,,,,3,1,2021-01-08_16h55.54.723,CL_C2S3,2020.1.3,Win32,60,,,,,,,,,,,,,,,,,,,,,,,,,,,,,,,,,,,,,,,,,h,1,1.16956,0,0,0,0,1,,,,,,,,,,,,,,,,,,,,,,,,,,,,,,,,,,,,,,,,,,,,,,,,,,,,,,,,,,,,,,
,,,,,,,,,,,,,,,,,,,,3,1,2021-01-08_16h55.54.723,CL_C2S3,2020.1.3,Win32,60,,,,,,,,,,,,,0,0,"[99,99,99]",0,0,Hand,h,TR,0,0,18,2,1,0.871609516,99,h,1.16956,1,1,,,,,,,,,,,,,,,,,,18,0,18,0,1,,,,,,,,,,,,,,,,,,,,,,,,,,,,,,,,,,,,,,,,,,,,,,,,,,,,,,,,,
,,,,,,,,,,,,,,,,,,,,3,1,2021-01-08_16h55.54.723,CL_C2S3,2020.1.3,Win32,60,,,,,,,,,,,,,,,,,,,,,,,,,,,,,,,,,,,,,,,,,u,0,1.14448,0,0,0,0,1,,,,,,,,,,,,,,,,,,,,,,,,,,,,,,,,,,,,,,,,,,,,,,,,,,,,,,,,,,,,,,
,,,,,,,,,,,,,,,,,,,,3,1,2021-01-08_16h55.54.723,CL_C2S3,2020.1.3,Win32,60,,,,,,,,,,,,,2,0,"[99,99,99]",2,0,Hand,i,TR,0,0,19,2,1,0.385664152,99,u,1.14448,0,1,,,,,,,,,,,,,,,,,,19,0,19,0,1,,,,,,,,,,,,,,,,,,,,,,,,,,,,,,,,,,,,,,,,,,,,,,,,,,,,,,,,,
,,,,,,,,,,,,,,,,,,,,3,1,2021-01-08_16h55.54.723,CL_C2S3,2020.1.3,Win32,60,,,,,,,,,,,,,,,,,,,,,,,,,,,,,,,,,,,,,,,,,u,1,1.17385,0,0,0,0,1,,,,,,,,,,,,,,,,,,,,,,,,,,,,,,,,,,,,,,,,,,,,,,,,,,,,,,,,,,,,,,
,,,,,,,,,,,,,,,,,,,,3,1,2021-01-08_16h55.54.723,CL_C2S3,2020.1.3,Win32,60,,,,,,,,,,,,,1,0,"[99,99,99]",1,1,Hand,u,TR,0,0,20,2,1,0.590039937,99,u,1.17385,1,1,,,,,,,,,,,,,,,,,,20,0,20,0,1,,,,,,,,,,,,,,,,,,,,,,,,,,,,,,,,,,,,,,,,,,,,,,,,,,,,,,,,,
,,,,,,,,,,,,,,,,,,,,3,1,2021-01-08_16h55.54.723,CL_C2S3,2020.1.3,Win32,60,,,,,,,,,,,,,,,,,,,,,,,,,,,,,,,,,,,,,,,,,u,1,1.27641,0,0,0,0,1,,,,,,,,,,,,,,,,,,,,,,,,,,,,,,,,,,,,,,,,,,,,,,,,,,,,,,,,,,,,,,
,,,,,,,,,,,,,,,,,,,,3,1,2021-01-08_16h55.54.723,CL_C2S3,2020.1.3,Win32,60,,,,,,,,,,,,,1,0,"[99,99,99]",1,1,Hand,u,TR,0,0,21,2,1,1.195450937,99,u,1.27641,1,1,,,,,,,,,,,,,,,,,,21,0,21,0,1,,,,,,,,,,,,,,,,,,,,,,,,,,,,,,,,,,,,,,,,,,,,,,,,,,,,,,,,,
,,,,,,,,,,,,,,,,,,,,3,1,2021-01-08_16h55.54.723,CL_C2S3,2020.1.3,Win32,60,,,,,,,,,,,,,,,,,,,,,,,,,,,,,,,,,,,,,,,,,i,1,1.219705,0,0,0,0,1,,,,,,,,,,,,,,,,,,,,,,,,,,,,,,,,,,,,,,,,,,,,,,,,,,,,,,,,,,,,,,
,,,,,,,,,,,,,,,,,,,,3,1,2021-01-08_16h55.54.723,CL_C2S3,2020.1.3,Win32,60,,,,,,,,,,,,,2,0,"[99,99,99]",2,0,Hand,i,TR,0,0,22,2,1,0.500408108,99,i,1.219705,1,1,,,,,,,,,,,,,,,,,,22,0,22,0,1,,,,,,,,,,,,,,,,,,,,,,,,,,,,,,,,,,,,,,,,,,,,,,,,,,,,,,,,,
,,,,,,,,,,,,,,,,,,,,3,1,2021-01-08_16h55.54.723,CL_C2S3,2020.1.3,Win32,60,,,,,,,,,,,,,,,,,,,,,,,,,,,,,,,,,,,,,,,,,h,1,1.171015,0,0,0,0,1,,,,,,,,,,,,,,,,,,,,,,,,,,,,,,,,,,,,,,,,,,,,,,,,,,,,,,,,,,,,,,
,,,,,,,,,,,,,,,,,,,,3,1,2021-01-08_16h55.54.723,CL_C2S3,2020.1.3,Win32,60,,,,,,,,,,,,,0,0,"[99,99,99]",0,0,Hand,h,TR,0,0,23,2,1,1.014008088,99,h,1.171015,1,1,,,,,,,,,,,,,,,,,,23,0,23,0,1,,,,,,,,,,,,,,,,,,,,,,,,,,,,,,,,,,,,,,,,,,,,,,,,,,,,,,,,,
,,,,,,,,,,,,,,,,,,,,3,1,2021-01-08_16h55.54.723,CL_C2S3,2020.1.3,Win32,60,,,,,,,,,,,,,,,,,,,,,,,,,,,,,,,,,,,,,,,,,u,1,1.377035,0,0,0,0,1,,,,,,,,,,,,,,,,,,,,,,,,,,,,,,,,,,,,,,,,,,,,,,,,,,,,,,,,,,,,,,
,,,,,,,,,,,,,,,,,,,,3,1,2021-01-08_16h55.54.723,CL_C2S3,2020.1.3,Win32,60,,,,,,,,,,,,,1,0,"[99,99,99]",1,1,Hand,u,TR,0,0,24,2,1,0.364543244,99,u,1.377035,1,1,,,,,,,,,,,,,,,,,,24,0,24,0,1,,,,,,,,,,,,,,,,,,,,,,,,,,,,,,,,,,,,,,,,,,,,,,,,,,,,,,,,,
,,,,,,,,,,,,,,,,,,,,3,1,2021-01-08_16h55.54.723,CL_C2S3,2020.1.3,Win32,60,,,,,,,,,,,,,,,,,,,,,,,,,,,,,,,,,,,,,,,,,h,1,1.377575,0,0,0,0,1,,,,,,,,,,,,,,,,,,,,,,,,,,,,,,,,,,,,,,,,,,,,,,,,,,,,,,,,,,,,,,
,,,,,,,,,,,,,,,,,,,,3,1,2021-01-08_16h55.54.723,CL_C2S3,2020.1.3,Win32,60,,,,,,,,,,,,,0,0,"[99,99,99]",0,0,Hand,h,TR,0,0,25,2,1,0.447365909,99,h,1.377575,1,1,,,,,,,,,,,,,,,,,,25,0,25,0,1,,,,,,,,,,,,,,,,,,,,,,,,,,,,,,,,,,,,,,,,,,,,,,,,,,,,,,,,,
,,,,,,,,,,,,,,,,,,,,3,1,2021-01-08_16h55.54.723,CL_C2S3,2020.1.3,Win32,60,,,,,,,,,,,,,,,,,,,,,,,,,,,,,,,,,,,,,,,,,i,1,1.24242,0,0,0,0,1,,,,,,,,,,,,,,,,,,,,,,,,,,,,,,,,,,,,,,,,,,,,,,,,,,,,,,,,,,,,,,
,,,,,,,,,,,,,,,,,,,,3,1,2021-01-08_16h55.54.723,CL_C2S3,2020.1.3,Win32,60,,,,,,,,,,,,,2,0,"[99,99,99]",2,0,Hand,i,TR,0,0,26,2,1,1.007031891,99,i,1.24242,1,1,,,,,,,,,,,,,,,,,,26,0,26,0,1,,,,,,,,,,,,,,,,,,,,,,,,,,,,,,,,,,,,,,,,,,,,,,,,,,,,,,,,,
,,,,,,,,,,,,,,,,,,,,3,1,2021-01-08_16h55.54.723,CL_C2S3,2020.1.3,Win32,60,,,,,,,,,,,,,,,,,,,,,,,,,,,,,,,,,,,,,,,,,u,1,1.15335,0,0,0,0,1,,,,,,,,,,,,,,,,,,,,,,,,,,,,,,,,,,,,,,,,,,,,,,,,,,,,,,,,,,,,,,
,,,,,,,,,,,,,,,,,,,,3,1,2021-01-08_16h55.54.723,CL_C2S3,2020.1.3,Win32,60,,,,,,,,,,,,,1,0,"[99,99,99]",1,1,Hand,u,TR,0,0,27,2,1,0.672846688,99,u,1.15335,1,1,,,,,,,,,,,,,,,,,,27,0,27,0,1,,,,,,,,,,,,,,,,,,,,,,,,,,,,,,,,,,,,,,,,,,,,,,,,,,,,,,,,,
,,,,,,,,,,,,,,,,,,,,3,1,2021-01-08_16h55.54.723,CL_C2S3,2020.1.3,Win32,60,,,,,,,,,,,,,,,,,,,,,,,,,,,,,,,,,,,,,,,,,h,1,1.319795,0,0,0,0,1,,,,,,,,,,,,,,,,,,,,,,,,,,,,,,,,,,,,,,,,,,,,,,,,,,,,,,,,,,,,,,
,,,,,,,,,,,,,,,,,,,,3,1,2021-01-08_16h55.54.723,CL_C2S3,2020.1.3,Win32,60,,,,,,,,,,,,,0,0,"[99,99,99]",0,0,Hand,h,TR,0,0,28,2,1,0.626729043,99,h,1.319795,1,1,,,,,,,,,,,,,,,,,,28,0,28,0,1,,,,,,,,,,,,,,,,,,,,,,,,,,,,,,,,,,,,,,,,,,,,,,,,,,,,,,,,,
,,,,,,,,,,,,,,,,,,,,3,1,2021-01-08_16h55.54.723,CL_C2S3,2020.1.3,Win32,60,,,,,,,,,,,,,,,,,,,,,,,,,,,,,,,,,,,,,,,,,i,1,1.27001,0,0,0,0,1,,,,,,,,,,,,,,,,,,,,,,,,,,,,,,,,,,,,,,,,,,,,,,,,,,,,,,,,,,,,,,
,,,,,,,,,,,,,,,,,,,,3,1,2021-01-08_16h55.54.723,CL_C2S3,2020.1.3,Win32,60,,,,,,,,,,,,,2,0,"[99,99,99]",2,0,Hand,i,TR,0,0,29,2,1,0.848964951,99,i,1.27001,1,1,,,,,,,,,,,,,,,,,,29,0,29,0,1,,,,,,,,,,,,,,,,,,,,,,,,,,,,,,,,,,,,,,,,,,,,,,,,,,,,,,,,,
,,,,,,,,,,,,,,,,,,,,3,1,2021-01-08_16h55.54.723,CL_C2S3,2020.1.3,Win32,60,,,,,,,,,,,,,,,,,,,,,,,,,,,,,,,,,,,,,,,,,h,1,1.15417,0,0,0,0,1,,,,,,,,,,,,,,,,,,,,,,,,,,,,,,,,,,,,,,,,,,,,,,,,,,,,,,,,,,,,,,
,,,,,,,,,,,,,,,,,,,,3,1,2021-01-08_16h55.54.723,CL_C2S3,2020.1.3,Win32,60,,,,,,,,,,,,,0,0,"[99,99,99]",0,0,Hand,h,TR,0,0,30,2,1,0.931203996,99,h,1.15417,1,1,,,,,,,,,,,,,,,,,,30,0,30,0,1,,,,,,,,,,,,,,,,,,,,,,,,,,,,,,,,,,,,,,,,,,,,,,,,,,,,,,,,,
,,,,,,,,,,,,,,,,,,,,3,1,2021-01-08_16h55.54.723,CL_C2S3,2020.1.3,Win32,60,,,,,,,,,,,,,,,,,,,,,,,,,,,,,,,,,,,,,,,,,u,1,1.170395,0,0,0,0,1,,,,,,,,,,,,,,,,,,,,,,,,,,,,,,,,,,,,,,,,,,,,,,,,,,,,,,,,,,,,,,
,,,,,,,,,,,,,,,,,,,,3,1,2021-01-08_16h55.54.723,CL_C2S3,2020.1.3,Win32,60,,,,,,,,,,,,,1,0,"[99,99,99]",1,1,Hand,u,TR,0,0,31,2,1,1.089165454,99,u,1.170395,1,1,,,,,,,,,,,,,,,,,,31,0,31,0,1,,,,,,,,,,,,,,,,,,,,,,,,,,,,,,,,,,,,,,,,,,,,,,,,,,,,,,,,,
,,,,,,,,,,,,,,,,,,,,3,1,2021-01-08_16h55.54.723,CL_C2S3,2020.1.3,Win32,60,,,,,,,,,,,,,,,,,,,,,,,,,,,,,,,,,,,,,,,,,i,1,1.221435,0,0,0,0,1,,,,,,,,,,,,,,,,,,,,,,,,,,,,,,,,,,,,,,,,,,,,,,,,,,,,,,,,,,,,,,
,,,,,,,,,,,,,,,,,,,,3,1,2021-01-08_16h55.54.723,CL_C2S3,2020.1.3,Win32,60,,,,,,,,,,,,,2,0,"[99,99,99]",2,0,Hand,i,TR,0,0,32,2,1,0.823418378,99,i,1.221435,1,1,,,,,,,,,,,,,,,,,,32,0,32,0,1,,,,,,,,,,,,,,,,,,,,,,,,,,,,,,,,,,,,,,,,,,,,,,,,,,,,,,,,,
,,,,,,,,,,,,,,,,,,,,3,1,2021-01-08_16h55.54.723,CL_C2S3,2020.1.3,Win32,60,,,,,,,,,,,,,,,,,,,,,,,,,,,,,,,,,,,,,,,,,u,1,1.243315,0,0,0,0,1,,,,,,,,,,,,,,,,,,,,,,,,,,,,,,,,,,,,,,,,,,,,,,,,,,,,,,,,,,,,,,
,,,,,,,,,,,,,,,,,,,,3,1,2021-01-08_16h55.54.723,CL_C2S3,2020.1.3,Win32,60,,,,,,,,,,,,,1,0,"[99,99,99]",1,1,Hand,u,TR,0,0,33,2,1,0.782433979,99,u,1.243315,1,1,,,,,,,,,,,,,,,,,,33,0,33,0,1,,,,,,,,,,,,,,,,,,,,,,,,,,,,,,,,,,,,,,,,,,,,,,,,,,,,,,,,,
,,,,,,,,,,,,,,,,,,,,3,1,2021-01-08_16h55.54.723,CL_C2S3,2020.1.3,Win32,60,,,,,,,,,,,,,,,,,,,,,,,,,,,,,,,,,,,,,,,,,h,1,1.14446,0,0,0,0,1,,,,,,,,,,,,,,,,,,,,,,,,,,,,,,,,,,,,,,,,,,,,,,,,,,,,,,,,,,,,,,
,,,,,,,,,,,,,,,,,,,,3,1,2021-01-08_16h55.54.723,CL_C2S3,2020.1.3,Win32,60,,,,,,,,,,,,,0,0,"[99,99,99]",0,0,Hand,h,TR,0,0,34,2,1,1.017819907,99,h,1.14446,1,1,,,,,,,,,,,,,,,,,,34,0,34,0,1,,,,,,,,,,,,,,,,,,,,,,,,,,,,,,,,,,,,,,,,,,,,,,,,,,,,,,,,,
,,,,,,,,,,,,,,,,,,,,3,1,2021-01-08_16h55.54.723,CL_C2S3,2020.1.3,Win32,60,,,,,,,,,,,,,,,,,,,,,,,,,,,,,,,,,,,,,,,,,i,1,1.35403,0,0,0,0,1,,,,,,,,,,,,,,,,,,,,,,,,,,,,,,,,,,,,,,,,,,,,,,,,,,,,,,,,,,,,,,
,,,,,,,,,,,,,,,,,,,,3,1,2021-01-08_16h55.54.723,CL_C2S3,2020.1.3,Win32,60,,,,,,,,,,,,,2,0,"[99,99,99]",2,0,Hand,i,TR,0,0,35,2,1,0.976481925,99,i,1.35403,1,1,,,,,,,,,,,,,,,,,,35,0,35,0,1,,,,,,,,,,,,,,,,,,,,,,,,,,,,,,,,,,,,,,,,,,,,,,,,,,,,,,,,,
,,,,,,,,,,,,,,,,,,,,3,1,2021-01-08_16h55.54.723,CL_C2S3,2020.1.3,Win32,60,,,,,,,,,,,,,,,,,,,,,,,,,,,,,,,,,,,,,,,,,i,1,1.283845,0,0,0,0,1,,,,,,,,,,,,,,,,,,,,,,,,,,,,,,,,,,,,,,,,,,,,,,,,,,,,,,,,,,,,,,
,,,,,,,,,,,,,,,,,,,,3,1,2021-01-08_16h55.54.723,CL_C2S3,2020.1.3,Win32,60,,,,,,,,,,,,,2,0,"[99,99,99]",2,0,Hand,i,TR,0,0,36,2,1,0.691102234,99,i,1.283845,1,1,,,,,,,,,,,,,,,,,,36,0,36,0,1,,,,,,,,,,,,,,,,,,,,,,,,,,,,,,,,,,,,,,,,,,,,,,,,,,,,,,,,,
,,,,,,,,,,,,,,,,,,,,3,1,2021-01-08_16h55.54.723,CL_C2S3,2020.1.3,Win32,60,,,,,,,,,,,,,,,,,,,,,,,,,,,,,,,,,,,,,,,,,h,1,1.270505,0,0,0,0,1,,,,,,,,,,,,,,,,,,,,,,,,,,,,,,,,,,,,,,,,,,,,,,,,,,,,,,,,,,,,,,
,,,,,,,,,,,,,,,,,,,,3,1,2021-01-08_16h55.54.723,CL_C2S3,2020.1.3,Win32,60,,,,,,,,,,,,,0,0,"[99,99,99]",0,0,Hand,h,TR,0,0,37,2,1,0.564191644,99,h,1.270505,1,1,,,,,,,,,,,,,,,,,,37,0,37,0,1,,,,,,,,,,,,,,,,,,,,,,,,,,,,,,,,,,,,,,,,,,,,,,,,,,,,,,,,,
,,,,,,,,,,,,,,,,,,,,3,1,2021-01-08_16h55.54.723,CL_C2S3,2020.1.3,Win32,60,,,,,,,,,,,,,,,,,,,,,,,,,,,,,,,,,,,,,,,,,u,0,1.30435,0,0,0,0,1,,,,,,,,,,,,,,,,,,,,,,,,,,,,,,,,,,,,,,,,,,,,,,,,,,,,,,,,,,,,,,
,,,,,,,,,,,,,,,,,,,,3,1,2021-01-08_16h55.54.723,CL_C2S3,2020.1.3,Win32,60,,,,,,,,,,,,,0,0,"[99,99,99]",0,0,Hand,h,TR,0,0,38,2,1,0.089859147,99,u,1.30435,0,1,,,,,,,,,,,,,,,,,,38,0,38,0,1,,,,,,,,,,,,,,,,,,,,,,,,,,,,,,,,,,,,,,,,,,,,,,,,,,,,,,,,,
,,,,,,,,,,,,,,,,,,,,3,1,2021-01-08_16h55.54.723,CL_C2S3,2020.1.3,Win32,60,,,,,,,,,,,,,,,,,,,,,,,,,,,,,,,,,,,,,,,,,u,1,1.22723,0,0,0,0,1,,,,,,,,,,,,,,,,,,,,,,,,,,,,,,,,,,,,,,,,,,,,,,,,,,,,,,,,,,,,,,
,,,,,,,,,,,,,,,,,,,,3,1,2021-01-08_16h55.54.723,CL_C2S3,2020.1.3,Win32,60,,,,,,,,,,,,,1,0,"[99,99,99]",1,1,Hand,u,TR,0,0,39,2,1,0.588462617,99,u,1.22723,1,1,,,,,,,,,,,,,,,,,,39,0,39,0,1,,,,,,,,,,,,,,,,,,,,,,,,,,,,,,,,,,,,,,,,,,,,,,,,,,,,,,,,,
,,,,,,,,,,,,,,,,,,,,3,1,2021-01-08_16h55.54.723,CL_C2S3,2020.1.3,Win32,60,,,,,,,,,,,,,,,,,,,,,,,,,,,,,,,,,,,,,,,,,u,1,1.27288,0,0,0,0,1,,,,,,,,,,,,,,,,,,,,,,,,,,,,,,,,,,,,,,,,,,,,,,,,,,,,,,,,,,,,,,
,,,,,,,,,,,,,,,,,,,,3,1,2021-01-08_16h55.54.723,CL_C2S3,2020.1.3,Win32,60,,,,,,,,,,,,,1,0,"[99,99,99]",1,1,Hand,u,TR,0,0,40,2,1,0.38778821,99,u,1.27288,1,1,,,,,,,,,,,,,,,,,,40,0,40,0,1,,,,,,,,,,,,,,,,,,,,,,,,,,,,,,,,,,,,,,,,,,,,,,,,,,,,,,,,,
,,,,,,,,,,,,,,,,,,,,3,1,2021-01-08_16h55.54.723,CL_C2S3,2020.1.3,Win32,60,,,,,,,,,,,,,,,,,,,,,,,,,,,,,,,,,,,,,,,,,h,0,1.32765,0,0,0,0,1,,,,,,,,,,,,,,,,,,,,,,,,,,,,,,,,,,,,,,,,,,,,,,,,,,,,,,,,,,,,,,
,,,,,,,,,,,,,,,,,,,,3,1,2021-01-08_16h55.54.723,CL_C2S3,2020.1.3,Win32,60,,,,,,,,,,,,,2,0,"[99,99,99]",2,0,Hand,i,TR,0,0,41,2,1,0.011149329,99,h,1.32765,0,1,,,,,,,,,,,,,,,,,,41,0,41,0,1,,,,,,,,,,,,,,,,,,,,,,,,,,,,,,,,,,,,,,,,,,,,,,,,,,,,,,,,,
,,,,,,,,,,,,,,,,,,,,3,1,2021-01-08_16h55.54.723,CL_C2S3,2020.1.3,Win32,60,,,,,,,,,,,,,,,,,,,,,,,,,,,,,,,,,,,,,,,,,h,0,1.17736,0,0,0,0,1,,,,,,,,,,,,,,,,,,,,,,,,,,,,,,,,,,,,,,,,,,,,,,,,,,,,,,,,,,,,,,
,,,,,,,,,,,,,,,,,,,,3,1,2021-01-08_16h55.54.723,CL_C2S3,2020.1.3,Win32,60,,,,,,,,,,,,,2,0,"[99,99,99]",2,0,Hand,i,TR,0,0,42,2,1,0.411552172,99,h,1.17736,0,1,,,,,,,,,,,,,,,,,,42,0,42,0,1,,,,,,,,,,,,,,,,,,,,,,,,,,,,,,,,,,,,,,,,,,,,,,,,,,,,,,,,,
,,,,,,,,,,,,,,,,,,,,3,1,2021-01-08_16h55.54.723,CL_C2S3,2020.1.3,Win32,60,,,,,,,,,,,,,,,,,,,,,,,,,,,,,,,,,,,,,,,,,h,0,1.27112,0,0,0,0,1,,,,,,,,,,,,,,,,,,,,,,,,,,,,,,,,,,,,,,,,,,,,,,,,,,,,,,,,,,,,,,
,,,,,,,,,,,,,,,,,,,,3,1,2021-01-08_16h55.54.723,CL_C2S3,2020.1.3,Win32,60,,,,,,,,,,,,,1,0,"[99,99,99]",1,1,Hand,u,TR,0,0,43,2,1,0.232382341,99,h,1.27112,0,1,,,,,,,,,,,,,,,,,,43,0,43,0,1,,,,,,,,,,,,,,,,,,,,,,,,,,,,,,,,,,,,,,,,,,,,,,,,,,,,,,,,,
,,,,,,,,,,,,,,,,,,,,3,1,2021-01-08_16h55.54.723,CL_C2S3,2020.1.3,Win32,60,,,,,,,,,,,,,,,,,,,,,,,,,,,,,,,,,,,,,,,,,h,1,1.26755,0,0,0,0,1,,,,,,,,,,,,,,,,,,,,,,,,,,,,,,,,,,,,,,,,,,,,,,,,,,,,,,,,,,,,,,
,,,,,,,,,,,,,,,,,,,,3,1,2021-01-08_16h55.54.723,CL_C2S3,2020.1.3,Win32,60,,,,,,,,,,,,,0,0,"[99,99,99]",0,0,Hand,h,TR,0,0,44,2,1,0.874512505,99,h,1.26755,1,1,,,,,,,,,,,,,,,,,,44,0,44,0,1,,,,,,,,,,,,,,,,,,,,,,,,,,,,,,,,,,,,,,,,,,,,,,,,,,,,,,,,,
,,,,,,,,,,,,,,,,,,,,3,1,2021-01-08_16h55.54.723,CL_C2S3,2020.1.3,Win32,60,,,,,,,,,,,,,,,,,,,,,,,,,,,,,,,,,,,,,,,,,i,1,1.178105,0,0,0,0,1,,,,,,,,,,,,,,,,,,,,,,,,,,,,,,,,,,,,,,,,,,,,,,,,,,,,,,,,,,,,,,
,,,,,,,,,,,,,,,,,,,,3,1,2021-01-08_16h55.54.723,CL_C2S3,2020.1.3,Win32,60,,,,,,,,,,,,,2,0,"[99,99,99]",2,0,Hand,i,TR,0,0,45,2,1,0.777730255,99,i,1.178105,1,1,,,,,,,,,,,,,,,,,,45,0,45,0,1,,,,,,,,,,,,,,,,,,,,,,,,,,,,,,,,,,,,,,,,,,,,,,,,,,,,,,,,,
,,,,,,,,,,,,,,,,,,,,3,1,2021-01-08_16h55.54.723,CL_C2S3,2020.1.3,Win32,60,,,,,,,,,,,,,,,,,,,,,,,,,,,,,,,,,,,,,,,,,i,1,1.244985,0,0,0,0,1,,,,,,,,,,,,,,,,,,,,,,,,,,,,,,,,,,,,,,,,,,,,,,,,,,,,,,,,,,,,,,
,,,,,,,,,,,,,,,,,,,,3,1,2021-01-08_16h55.54.723,CL_C2S3,2020.1.3,Win32,60,,,,,,,,,,,,,2,0,"[99,99,99]",2,0,Hand,i,TR,0,0,46,2,1,0.065844555,99,i,1.244985,1,1,,,,,,,,,,,,,,,,,,46,0,46,0,1,,,,,,,,,,,,,,,,,,,,,,,,,,,,,,,,,,,,,,,,,,,,,,,,,,,,,,,,,
,,,,,,,,,,,,,,,,,,,,3,1,2021-01-08_16h55.54.723,CL_C2S3,2020.1.3,Win32,60,,,,,,,,,,,,,,,,,,,,,,,,,,,,,,,,,,,,,,,,,h,1,1.254425,0,0,0,0,1,,,,,,,,,,,,,,,,,,,,,,,,,,,,,,,,,,,,,,,,,,,,,,,,,,,,,,,,,,,,,,
,,,,,,,,,,,,,,,,,,,,3,1,2021-01-08_16h55.54.723,CL_C2S3,2020.1.3,Win32,60,,,,,,,,,,,,,0,0,"[99,99,99]",0,0,Hand,h,TR,0,0,47,2,1,0.789005731,99,h,1.254425,1,1,,,,,,,,,,,,,,,,,,47,0,47,0,1,,,,,,,,,,,,,,,,,,,,,,,,,,,,,,,,,,,,,,,,,,,,,,,,,,,,,,,,,
,,,,,,,,,,,,,,,,,,,,3,1,2021-01-08_16h55.54.723,CL_C2S3,2020.1.3,Win32,60,,,,,,,,,,,,,,,,,,,,,,,,,,,,,,,,,,,,,,,,,u,1,1.069845,0,0,0,0,1,,,,,,,,,,,,,,,,,,,,,,,,,,,,,,,,,,,,,,,,,,,,,,,,,,,,,,,,,,,,,,
,,,,,,,,,,,,,,,,,,,,3,1,2021-01-08_16h55.54.723,CL_C2S3,2020.1.3,Win32,60,,,,,,,,,,,,,1,0,"[99,99,99]",1,1,Hand,u,TR,0,0,48,2,1,1.120819322,99,u,1.069845,1,1,,,,,,,,,,,,,,,,,,48,0,48,0,1,,,,,,,,,,,,,,,,,,,,,,,,,,,,,,,,,,,,,,,,,,,,,,,,,,,,,,,,,
,,,,,,,,,,,,,,,,,,,,3,1,2021-01-08_16h55.54.723,CL_C2S3,2020.1.3,Win32,60,,,,,,,,,,,,,,,,,,,,,,,,,,,,,,,,,,,,,,,,,u,1,1.22097,0,0,0,0,1,,,,,,,,,,,,,,,,,,,,,,,,,,,,,,,,,,,,,,,,,,,,,,,,,,,,,,,,,,,,,,
,,,,,,,,,,,,,,,,,,,,3,1,2021-01-08_16h55.54.723,CL_C2S3,2020.1.3,Win32,60,,,,,,,,,,,,,1,0,"[99,99,99]",1,1,Hand,u,TR,0,0,49,2,1,1.125173894,99,u,1.22097,1,1,,,,,,,,,,,,,,,,,,49,0,49,0,1,,,,,,,,,,,,,,,,,,,,,,,,,,,,,,,,,,,,,,,,,,,,,,,,,,,,,,,,,
,,,,,,,,,,,,,,,,,,,,3,1,2021-01-08_16h55.54.723,CL_C2S3,2020.1.3,Win32,60,,,,,,,,,,,,,,,,,,,,,,,,,,,,,,,,,,,,,,,,,u,0,1.127585,0,0,0,0,1,,,,,,,,,,,,,,,,,,,,,,,,,,,,,,,,,,,,,,,,,,,,,,,,,,,,,,,,,,,,,,
,,,,,,,,,,,,,,,,,,,,3,1,2021-01-08_16h55.54.723,CL_C2S3,2020.1.3,Win32,60,,,,,,,,,,,,,0,0,"[99,99,99]",0,0,Hand,h,TR,0,0,50,2,1,-0.068458035,99,u,1.127585,0,1,,,,,,,,,,,,,,,,,,50,0,50,0,1,,,,,,,,,,,,,,,,,,,,,,,,,,,,,,,,,,,,,,,,,,,,,,,,,,,,,,,,,
,,,,,,,,,,,,,,,,,,,,3,1,2021-01-08_16h55.54.723,CL_C2S3,2020.1.3,Win32,60,,,,,,,,,,,,,,,,,,,,,,,,,,,,,,,,,,,,,,,,,u,1,1.353875,0,0,0,0,1,,,,,,,,,,,,,,,,,,,,,,,,,,,,,,,,,,,,,,,,,,,,,,,,,,,,,,,,,,,,,,
,,,,,,,,,,,,,,,,,,,,3,1,2021-01-08_16h55.54.723,CL_C2S3,2020.1.3,Win32,60,,,,,,,,,,,,,1,0,"[99,99,99]",1,1,Hand,u,TR,0,0,51,2,1,0.378506012,99,u,1.353875,1,1,,,,,,,,,,,,,,,,,,51,0,51,0,1,,,,,,,,,,,,,,,,,,,,,,,,,,,,,,,,,,,,,,,,,,,,,,,,,,,,,,,,,
,,,,,,,,,,,,,,,,,,,,3,1,2021-01-08_16h55.54.723,CL_C2S3,2020.1.3,Win32,60,,,,,,,,,,,,,,,,,,,,,,,,,,,,,,,,,,,,,,,,,h,1,1.08785,0,0,0,0,1,,,,,,,,,,,,,,,,,,,,,,,,,,,,,,,,,,,,,,,,,,,,,,,,,,,,,,,,,,,,,,
,,,,,,,,,,,,,,,,,,,,3,1,2021-01-08_16h55.54.723,CL_C2S3,2020.1.3,Win32,60,,,,,,,,,,,,,0,0,"[99,99,99]",0,0,Hand,h,TR,0,0,52,2,1,0.683355878,99,h,1.08785,1,1,,,,,,,,,,,,,,,,,,52,0,52,0,1,,,,,,,,,,,,,,,,,,,,,,,,,,,,,,,,,,,,,,,,,,,,,,,,,,,,,,,,,
,,,,,,,,,,,,,,,,,,,,3,1,2021-01-08_16h55.54.723,CL_C2S3,2020.1.3,Win32,60,,,,,,,,,,,,,,,,,,,,,,,,,,,,,,,,,,,,,,,,,u,0,1.27097,0,0,0,0,1,,,,,,,,,,,,,,,,,,,,,,,,,,,,,,,,,,,,,,,,,,,,,,,,,,,,,,,,,,,,,,
,,,,,,,,,,,,,,,,,,,,3,1,2021-01-08_16h55.54.723,CL_C2S3,2020.1.3,Win32,60,,,,,,,,,,,,,0,0,"[99,99,99]",0,0,Hand,h,TR,0,0,53,2,1,-0.096471769,99,u,1.27097,0,1,,,,,,,,,,,,,,,,,,53,0,53,0,1,,,,,,,,,,,,,,,,,,,,,,,,,,,,,,,,,,,,,,,,,,,,,,,,,,,,,,,,,
,,,,,,,,,,,,,,,,,,,,3,1,2021-01-08_16h55.54.723,CL_C2S3,2020.1.3,Win32,60,,,,,,,,,,,,,,,,,,,,,,,,,,,,,,,,,,,,,,,,,u,1,1.170565,0,0,0,0,1,,,,,,,,,,,,,,,,,,,,,,,,,,,,,,,,,,,,,,,,,,,,,,,,,,,,,,,,,,,,,,
,,,,,,,,,,,,,,,,,,,,3,1,2021-01-08_16h55.54.723,CL_C2S3,2020.1.3,Win32,60,,,,,,,,,,,,,1,0,"[99,99,99]",1,1,Hand,u,TR,0,0,54,2,1,1.087763326,99,u,1.170565,1,1,,,,,,,,,,,,,,,,,,54,0,54,0,1,,,,,,,,,,,,,,,,,,,,,,,,,,,,,,,,,,,,,,,,,,,,,,,,,,,,,,,,,
,,,,,,,,,,,,,,,,,,,,3,1,2021-01-08_16h55.54.723,CL_C2S3,2020.1.3,Win32,60,,,,,,,,,,,,,,,,,,,,,,,,,,,,,,,,,,,,,,,,,i,1,1.3776,0,0,0,0,1,,,,,,,,,,,,,,,,,,,,,,,,,,,,,,,,,,,,,,,,,,,,,,,,,,,,,,,,,,,,,,
,,,,,,,,,,,,,,,,,,,,3,1,2021-01-08_16h55.54.723,CL_C2S3,2020.1.3,Win32,60,,,,,,,,,,,,,2,0,"[99,99,99]",2,0,Hand,i,TR,0,0,55,2,1,0.776314972,99,i,1.3776,1,1,,,,,,,,,,,,,,,,,,55,0,55,0,1,,,,,,,,,,,,,,,,,,,,,,,,,,,,,,,,,,,,,,,,,,,,,,,,,,,,,,,,,
,,,,,,,,,,,,,,,,,,,,3,1,2021-01-08_16h55.54.723,CL_C2S3,2020.1.3,Win32,60,,,,,,,,,,,,,,,,,,,,,,,,,,,,,,,,,,,,,,,,,i,1,1.20715,0,0,0,0,1,,,,,,,,,,,,,,,,,,,,,,,,,,,,,,,,,,,,,,,,,,,,,,,,,,,,,,,,,,,,,,
,,,,,,,,,,,,,,,,,,,,3,1,2021-01-08_16h55.54.723,CL_C2S3,2020.1.3,Win32,60,,,,,,,,,,,,,2,0,"[99,99,99]",2,0,Hand,i,TR,0,0,56,2,1,1.01987862,99,i,1.20715,1,1,,,,,,,,,,,,,,,,,,56,0,56,0,1,,,,,,,,,,,,,,,,,,,,,,,,,,,,,,,,,,,,,,,,,,,,,,,,,,,,,,,,,
,,,,,,,,,,,,,,,,,,,,3,1,2021-01-08_16h55.54.723,CL_C2S3,2020.1.3,Win32,60,,,,,,,,,,,,,,,,,,,,,,,,,,,,,,,,,,,,,,,,,i,0,1.29358,0,0,0,0,1,,,,,,,,,,,,,,,,,,,,,,,,,,,,,,,,,,,,,,,,,,,,,,,,,,,,,,,,,,,,,,
,,,,,,,,,,,,,,,,,,,,3,1,2021-01-08_16h55.54.723,CL_C2S3,2020.1.3,Win32,60,,,,,,,,,,,,,1,0,"[99,99,99]",1,1,Hand,u,TR,0,0,57,2,1,0.193614683,99,i,1.29358,0,1,,,,,,,,,,,,,,,,,,57,0,57,0,1,,,,,,,,,,,,,,,,,,,,,,,,,,,,,,,,,,,,,,,,,,,,,,,,,,,,,,,,,
,,,,,,,,,,,,,,,,,,,,3,1,2021-01-08_16h55.54.723,CL_C2S3,2020.1.3,Win32,60,,,,,,,,,,,,,,,,,,,,,,,,,,,,,,,,,,,,,,,,,i,1,1.3044,0,0,0,0,1,,,,,,,,,,,,,,,,,,,,,,,,,,,,,,,,,,,,,,,,,,,,,,,,,,,,,,,,,,,,,,
,,,,,,,,,,,,,,,,,,,,3,1,2021-01-08_16h55.54.723,CL_C2S3,2020.1.3,Win32,60,,,,,,,,,,,,,2,0,"[99,99,99]",2,0,Hand,i,TR,0,0,58,2,1,0.448277181,99,i,1.3044,1,1,,,,,,,,,,,,,,,,,,58,0,58,0,1,,,,,,,,,,,,,,,,,,,,,,,,,,,,,,,,,,,,,,,,,,,,,,,,,,,,,,,,,
,,,,,,,,,,,,,,,,,,,,3,1,2021-01-08_16h55.54.723,CL_C2S3,2020.1.3,Win32,60,,,,,,,,,,,,,,,,,,,,,,,,,,,,,,,,,,,,,,,,,h,1,1.25297,0,0,0,0,1,,,,,,,,,,,,,,,,,,,,,,,,,,,,,,,,,,,,,,,,,,,,,,,,,,,,,,,,,,,,,,
,,,,,,,,,,,,,,,,,,,,3,1,2021-01-08_16h55.54.723,CL_C2S3,2020.1.3,Win32,60,,,,,,,,,,,,,0,0,"[99,99,99]",0,0,Hand,h,TR,0,0,59,2,1,0.604352162,99,h,1.25297,1,1,,,,,,,,,,,,,,,,,,59,0,59,0,1,,,,,,,,,,,,,,,,,,,,,,,,,,,,,,,,,,,,,,,,,,,,,,,,,,,,,,,,,
,,,,,,,,,,,,,,,,,,,,3,1,2021-01-08_16h55.54.723,CL_C2S3,2020.1.3,Win32,60,,,,,,,,,,,,,,,,,,,,,,,,,,,,,,,,,,,,,,,,,,,,,,,,,,,,,,0,0,0,0,1,,,,,,,,,,,,,,,,,,,,,,,,,,,,,,,,,,,,,,,,,,,,,,,,,,,,
,,,,,,,,,,,,,,,,,,,,3,1,2021-01-08_16h55.54.723,CL_C2S3,2020.1.3,Win32,60,,,,,,,,,,,,,,,,,,,,,,,,,,,,,,,,,,,,,,,h,0.48486,i,1,1.180275,0,0,0,0,1,,,,,,,,,,,,,,,,,,,,,,,,,,,,,,,,,,,,,,,,,,,,,,,,,,,,,,,,,,,,,,
,,,,,,,,,,,,,,,,,,,,3,1,2021-01-08_16h55.54.723,CL_C2S3,2020.1.3,Win32,60,,,,,,,,,,,,,2,0,"[99,99,99]",2,0,Hand,i,TR,0,0,0,2,2,0.455307532,99,i,1.180275,1,1,,,,,,,,,,,,,,,,,,0,0,0,0,1,,,,,,,,,,,,,,,,,,,,,,,,,,,,,,,,,,,,,,,,,,,,,,,,,,,,,,,,,
,,,,,,,,,,,,,,,,,,,,3,1,2021-01-08_16h55.54.723,CL_C2S3,2020.1.3,Win32,60,,,,,,,,,,,,,,,,,,,,,,,,,,,,,,,,,,,,,,,,,u,1,1.226175,0,0,0,0,1,,,,,,,,,,,,,,,,,,,,,,,,,,,,,,,,,,,,,,,,,,,,,,,,,,,,,,,,,,,,,,
,,,,,,,,,,,,,,,,,,,,3,1,2021-01-08_16h55.54.723,CL_C2S3,2020.1.3,Win32,60,,,,,,,,,,,,,1,0,"[99,99,99]",1,1,Hand,u,TR,0,0,1,2,2,0.925696314,99,u,1.226175,1,1,,,,,,,,,,,,,,,,,,1,0,1,0,1,,,,,,,,,,,,,,,,,,,,,,,,,,,,,,,,,,,,,,,,,,,,,,,,,,,,,,,,,
,,,,,,,,,,,,,,,,,,,,3,1,2021-01-08_16h55.54.723,CL_C2S3,2020.1.3,Win32,60,,,,,,,,,,,,,,,,,,,,,,,,,,,,,,,,,,,,,,,,,h,1,1.13087,0,0,0,0,1,,,,,,,,,,,,,,,,,,,,,,,,,,,,,,,,,,,,,,,,,,,,,,,,,,,,,,,,,,,,,,
,,,,,,,,,,,,,,,,,,,,3,1,2021-01-08_16h55.54.723,CL_C2S3,2020.1.3,Win32,60,,,,,,,,,,,,,0,0,"[99,99,99]",0,0,Hand,h,TR,0,0,2,2,2,0.691147091,99,h,1.13087,1,1,,,,,,,,,,,,,,,,,,2,0,2,0,1,,,,,,,,,,,,,,,,,,,,,,,,,,,,,,,,,,,,,,,,,,,,,,,,,,,,,,,,,
,,,,,,,,,,,,,,,,,,,,3,1,2021-01-08_16h55.54.723,CL_C2S3,2020.1.3,Win32,60,,,,,,,,,,,,,,,,,,,,,,,,,,,,,,,,,,,,,,,,,u,1,1.244995,0,0,0,0,1,,,,,,,,,,,,,,,,,,,,,,,,,,,,,,,,,,,,,,,,,,,,,,,,,,,,,,,,,,,,,,
,,,,,,,,,,,,,,,,,,,,3,1,2021-01-08_16h55.54.723,CL_C2S3,2020.1.3,Win32,60,,,,,,,,,,,,,1,0,"[99,99,99]",1,1,Hand,u,TR,0,0,3,2,2,0.696013552,99,u,1.244995,1,1,,,,,,,,,,,,,,,,,,3,0,3,0,1,,,,,,,,,,,,,,,,,,,,,,,,,,,,,,,,,,,,,,,,,,,,,,,,,,,,,,,,,
,,,,,,,,,,,,,,,,,,,,3,1,2021-01-08_16h55.54.723,CL_C2S3,2020.1.3,Win32,60,,,,,,,,,,,,,,,,,,,,,,,,,,,,,,,,,,,,,,,,,h,1,1.253335,0,0,0,0,1,,,,,,,,,,,,,,,,,,,,,,,,,,,,,,,,,,,,,,,,,,,,,,,,,,,,,,,,,,,,,,
,,,,,,,,,,,,,,,,,,,,3,1,2021-01-08_16h55.54.723,CL_C2S3,2020.1.3,Win32,60,,,,,,,,,,,,,0,0,"[99,99,99]",0,0,Hand,h,TR,0,0,4,2,2,0.504561946,99,h,1.253335,1,1,,,,,,,,,,,,,,,,,,4,0,4,0,1,,,,,,,,,,,,,,,,,,,,,,,,,,,,,,,,,,,,,,,,,,,,,,,,,,,,,,,,,
,,,,,,,,,,,,,,,,,,,,3,1,2021-01-08_16h55.54.723,CL_C2S3,2020.1.3,Win32,60,,,,,,,,,,,,,,,,,,,,,,,,,,,,,,,,,,,,,,,,,i,1,1.106985,0,0,0,0,1,,,,,,,,,,,,,,,,,,,,,,,,,,,,,,,,,,,,,,,,,,,,,,,,,,,,,,,,,,,,,,
,,,,,,,,,,,,,,,,,,,,3,1,2021-01-08_16h55.54.723,CL_C2S3,2020.1.3,Win32,60,,,,,,,,,,,,,2,0,"[99,99,99]",2,0,Hand,i,TR,0,0,5,2,2,0.865421434,99,i,1.106985,1,1,,,,,,,,,,,,,,,,,,5,0,5,0,1,,,,,,,,,,,,,,,,,,,,,,,,,,,,,,,,,,,,,,,,,,,,,,,,,,,,,,,,,
,,,,,,,,,,,,,,,,,,,,3,1,2021-01-08_16h55.54.723,CL_C2S3,2020.1.3,Win32,60,,,,,,,,,,,,,,,,,,,,,,,,,,,,,,,,,,,,,,,,,h,1,1.25444,0,0,0,0,1,,,,,,,,,,,,,,,,,,,,,,,,,,,,,,,,,,,,,,,,,,,,,,,,,,,,,,,,,,,,,,
,,,,,,,,,,,,,,,,,,,,3,1,2021-01-08_16h55.54.723,CL_C2S3,2020.1.3,Win32,60,,,,,,,,,,,,,0,0,"[99,99,99]",0,0,Hand,h,TR,0,0,6,2,2,0.594627918,99,h,1.25444,1,1,,,,,,,,,,,,,,,,,,6,0,6,0,1,,,,,,,,,,,,,,,,,,,,,,,,,,,,,,,,,,,,,,,,,,,,,,,,,,,,,,,,,
,,,,,,,,,,,,,,,,,,,,3,1,2021-01-08_16h55.54.723,CL_C2S3,2020.1.3,Win32,60,,,,,,,,,,,,,,,,,,,,,,,,,,,,,,,,,,,,,,,,,u,1,1.221195,0,0,0,0,1,,,,,,,,,,,,,,,,,,,,,,,,,,,,,,,,,,,,,,,,,,,,,,,,,,,,,,,,,,,,,,
,,,,,,,,,,,,,,,,,,,,3,1,2021-01-08_16h55.54.723,CL_C2S3,2020.1.3,Win32,60,,,,,,,,,,,,,1,0,"[99,99,99]",1,1,Hand,u,TR,0,0,7,2,2,0.925191399,99,u,1.221195,1,1,,,,,,,,,,,,,,,,,,7,0,7,0,1,,,,,,,,,,,,,,,,,,,,,,,,,,,,,,,,,,,,,,,,,,,,,,,,,,,,,,,,,
,,,,,,,,,,,,,,,,,,,,3,1,2021-01-08_16h55.54.723,CL_C2S3,2020.1.3,Win32,60,,,,,,,,,,,,,,,,,,,,,,,,,,,,,,,,,,,,,,,,,i,1,1.227595,0,0,0,0,1,,,,,,,,,,,,,,,,,,,,,,,,,,,,,,,,,,,,,,,,,,,,,,,,,,,,,,,,,,,,,,
,,,,,,,,,,,,,,,,,,,,3,1,2021-01-08_16h55.54.723,CL_C2S3,2020.1.3,Win32,60,,,,,,,,,,,,,2,0,"[99,99,99]",2,0,Hand,i,TR,0,0,8,2,2,1.121745251,99,i,1.227595,1,1,,,,,,,,,,,,,,,,,,8,0,8,0,1,,,,,,,,,,,,,,,,,,,,,,,,,,,,,,,,,,,,,,,,,,,,,,,,,,,,,,,,,
,,,,,,,,,,,,,,,,,,,,3,1,2021-01-08_16h55.54.723,CL_C2S3,2020.1.3,Win32,60,,,,,,,,,,,,,,,,,,,,,,,,,,,,,,,,,,,,,,,,,h,1,1.293675,0,0,0,0,1,,,,,,,,,,,,,,,,,,,,,,,,,,,,,,,,,,,,,,,,,,,,,,,,,,,,,,,,,,,,,,
,,,,,,,,,,,,,,,,,,,,3,1,2021-01-08_16h55.54.723,CL_C2S3,2020.1.3,Win32,60,,,,,,,,,,,,,0,0,"[99,99,99]",0,0,Hand,h,TR,0,0,9,2,2,0.552774062,99,h,1.293675,1,1,,,,,,,,,,,,,,,,,,9,0,9,0,1,,,,,,,,,,,,,,,,,,,,,,,,,,,,,,,,,,,,,,,,,,,,,,,,,,,,,,,,,
,,,,,,,,,,,,,,,,,,,,3,1,2021-01-08_16h55.54.723,CL_C2S3,2020.1.3,Win32,60,,,,,,,,,,,,,,,,,,,,,,,,,,,,,,,,,,,,,,,,,i,1,1.25374,0,0,0,0,1,,,,,,,,,,,,,,,,,,,,,,,,,,,,,,,,,,,,,,,,,,,,,,,,,,,,,,,,,,,,,,
,,,,,,,,,,,,,,,,,,,,3,1,2021-01-08_16h55.54.723,CL_C2S3,2020.1.3,Win32,60,,,,,,,,,,,,,2,0,"[99,99,99]",2,0,Hand,i,TR,0,0,10,2,2,0.710200199,99,i,1.25374,1,1,,,,,,,,,,,,,,,,,,10,0,10,0,1,,,,,,,,,,,,,,,,,,,,,,,,,,,,,,,,,,,,,,,,,,,,,,,,,,,,,,,,,
,,,,,,,,,,,,,,,,,,,,3,1,2021-01-08_16h55.54.723,CL_C2S3,2020.1.3,Win32,60,,,,,,,,,,,,,,,,,,,,,,,,,,,,,,,,,,,,,,,,,h,0,1.320785,0,0,0,0,1,,,,,,,,,,,,,,,,,,,,,,,,,,,,,,,,,,,,,,,,,,,,,,,,,,,,,,,,,,,,,,
,,,,,,,,,,,,,,,,,,,,3,1,2021-01-08_16h55.54.723,CL_C2S3,2020.1.3,Win32,60,,,,,,,,,,,,,1,0,"[99,99,99]",1,1,Hand,u,TR,0,0,11,2,2,0.081444689,99,h,1.320785,0,1,,,,,,,,,,,,,,,,,,11,0,11,0,1,,,,,,,,,,,,,,,,,,,,,,,,,,,,,,,,,,,,,,,,,,,,,,,,,,,,,,,,,
,,,,,,,,,,,,,,,,,,,,3,1,2021-01-08_16h55.54.723,CL_C2S3,2020.1.3,Win32,60,,,,,,,,,,,,,,,,,,,,,,,,,,,,,,,,,,,,,,,,,u,1,1.310515,0,0,0,0,1,,,,,,,,,,,,,,,,,,,,,,,,,,,,,,,,,,,,,,,,,,,,,,,,,,,,,,,,,,,,,,
,,,,,,,,,,,,,,,,,,,,3,1,2021-01-08_16h55.54.723,CL_C2S3,2020.1.3,Win32,60,,,,,,,,,,,,,1,0,"[99,99,99]",1,1,Hand,u,TR,0,0,12,2,2,0.533774127,99,u,1.310515,1,1,,,,,,,,,,,,,,,,,,12,0,12,0,1,,,,,,,,,,,,,,,,,,,,,,,,,,,,,,,,,,,,,,,,,,,,,,,,,,,,,,,,,
,,,,,,,,,,,,,,,,,,,,3,1,2021-01-08_16h55.54.723,CL_C2S3,2020.1.3,Win32,60,,,,,,,,,,,,,,,,,,,,,,,,,,,,,,,,,,,,,,,,,i,1,1.15535,0,0,0,0,1,,,,,,,,,,,,,,,,,,,,,,,,,,,,,,,,,,,,,,,,,,,,,,,,,,,,,,,,,,,,,,
,,,,,,,,,,,,,,,,,,,,3,1,2021-01-08_16h55.54.723,CL_C2S3,2020.1.3,Win32,60,,,,,,,,,,,,,2,0,"[99,99,99]",2,0,Hand,i,TR,0,0,13,2,2,0.59191654,99,i,1.15535,1,1,,,,,,,,,,,,,,,,,,13,0,13,0,1,,,,,,,,,,,,,,,,,,,,,,,,,,,,,,,,,,,,,,,,,,,,,,,,,,,,,,,,,
,,,,,,,,,,,,,,,,,,,,3,1,2021-01-08_16h55.54.723,CL_C2S3,2020.1.3,Win32,60,,,,,,,,,,,,,,,,,,,,,,,,,,,,,,,,,,,,,,,,,h,1,1.287055,0,0,0,0,1,,,,,,,,,,,,,,,,,,,,,,,,,,,,,,,,,,,,,,,,,,,,,,,,,,,,,,,,,,,,,,
,,,,,,,,,,,,,,,,,,,,3,1,2021-01-08_16h55.54.723,CL_C2S3,2020.1.3,Win32,60,,,,,,,,,,,,,0,0,"[99,99,99]",0,0,Hand,h,TR,0,0,14,2,2,0.935583278,99,h,1.287055,1,1,,,,,,,,,,,,,,,,,,14,0,14,0,1,,,,,,,,,,,,,,,,,,,,,,,,,,,,,,,,,,,,,,,,,,,,,,,,,,,,,,,,,
,,,,,,,,,,,,,,,,,,,,3,1,2021-01-08_16h55.54.723,CL_C2S3,2020.1.3,Win32,60,,,,,,,,,,,,,,,,,,,,,,,,,,,,,,,,,,,,,,,,,u,1,1.077625,0,0,0,0,1,,,,,,,,,,,,,,,,,,,,,,,,,,,,,,,,,,,,,,,,,,,,,,,,,,,,,,,,,,,,,,
,,,,,,,,,,,,,,,,,,,,3,1,2021-01-08_16h55.54.723,CL_C2S3,2020.1.3,Win32,60,,,,,,,,,,,,,1,0,"[99,99,99]",1,1,Hand,u,TR,0,0,15,2,2,0.698400624,99,u,1.077625,1,1,,,,,,,,,,,,,,,,,,15,0,15,0,1,,,,,,,,,,,,,,,,,,,,,,,,,,,,,,,,,,,,,,,,,,,,,,,,,,,,,,,,,
,,,,,,,,,,,,,,,,,,,,3,1,2021-01-08_16h55.54.723,CL_C2S3,2020.1.3,Win32,60,,,,,,,,,,,,,,,,,,,,,,,,,,,,,,,,,,,,,,,,,i,1,1.32706,0,0,0,0,1,,,,,,,,,,,,,,,,,,,,,,,,,,,,,,,,,,,,,,,,,,,,,,,,,,,,,,,,,,,,,,
,,,,,,,,,,,,,,,,,,,,3,1,2021-01-08_16h55.54.723,CL_C2S3,2020.1.3,Win32,60,,,,,,,,,,,,,2,0,"[99,99,99]",2,0,Hand,i,TR,0,0,16,2,2,0.518706894,99,i,1.32706,1,1,,,,,,,,,,,,,,,,,,16,0,16,0,1,,,,,,,,,,,,,,,,,,,,,,,,,,,,,,,,,,,,,,,,,,,,,,,,,,,,,,,,,
,,,,,,,,,,,,,,,,,,,,3,1,2021-01-08_16h55.54.723,CL_C2S3,2020.1.3,Win32,60,,,,,,,,,,,,,,,,,,,,,,,,,,,,,,,,,,,,,,,,,u,1,1.24485,0,0,0,0,1,,,,,,,,,,,,,,,,,,,,,,,,,,,,,,,,,,,,,,,,,,,,,,,,,,,,,,,,,,,,,,
,,,,,,,,,,,,,,,,,,,,3,1,2021-01-08_16h55.54.723,CL_C2S3,2020.1.3,Win32,60,,,,,,,,,,,,,1,0,"[99,99,99]",1,1,Hand,u,TR,0,0,17,2,2,0.923958844,99,u,1.24485,1,1,,,,,,,,,,,,,,,,,,17,0,17,0,1,,,,,,,,,,,,,,,,,,,,,,,,,,,,,,,,,,,,,,,,,,,,,,,,,,,,,,,,,
,,,,,,,,,,,,,,,,,,,,3,1,2021-01-08_16h55.54.723,CL_C2S3,2020.1.3,Win32,60,,,,,,,,,,,,,,,,,,,,,,,,,,,,,,,,,,,,,,,,,i,1,1.24359,0,0,0,0,1,,,,,,,,,,,,,,,,,,,,,,,,,,,,,,,,,,,,,,,,,,,,,,,,,,,,,,,,,,,,,,
,,,,,,,,,,,,,,,,,,,,3,1,2021-01-08_16h55.54.723,CL_C2S3,2020.1.3,Win32,60,,,,,,,,,,,,,2,0,"[99,99,99]",2,0,Hand,i,TR,0,0,18,2,2,0.687732224,99,i,1.24359,1,1,,,,,,,,,,,,,,,,,,18,0,18,0,1,,,,,,,,,,,,,,,,,,,,,,,,,,,,,,,,,,,,,,,,,,,,,,,,,,,,,,,,,
,,,,,,,,,,,,,,,,,,,,3,1,2021-01-08_16h55.54.723,CL_C2S3,2020.1.3,Win32,60,,,,,,,,,,,,,,,,,,,,,,,,,,,,,,,,,,,,,,,,,h,1,1.14257,0,0,0,0,1,,,,,,,,,,,,,,,,,,,,,,,,,,,,,,,,,,,,,,,,,,,,,,,,,,,,,,,,,,,,,,
,,,,,,,,,,,,,,,,,,,,3,1,2021-01-08_16h55.54.723,CL_C2S3,2020.1.3,Win32,60,,,,,,,,,,,,,0,0,"[99,99,99]",0,0,Hand,h,TR,0,0,19,2,2,0.588731804,99,h,1.14257,1,1,,,,,,,,,,,,,,,,,,19,0,19,0,1,,,,,,,,,,,,,,,,,,,,,,,,,,,,,,,,,,,,,,,,,,,,,,,,,,,,,,,,,
,,,,,,,,,,,,,,,,,,,,3,1,2021-01-08_16h55.54.723,CL_C2S3,2020.1.3,Win32,60,,,,,,,,,,,,,,,,,,,,,,,,,,,,,,,,,,,,,,,,,u,0,1.29511,0,0,0,0,1,,,,,,,,,,,,,,,,,,,,,,,,,,,,,,,,,,,,,,,,,,,,,,,,,,,,,,,,,,,,,,
,,,,,,,,,,,,,,,,,,,,3,1,2021-01-08_16h55.54.723,CL_C2S3,2020.1.3,Win32,60,,,,,,,,,,,,,0,0,"[99,99,99]",0,0,Hand,h,TR,0,0,20,2,2,0.085577075,99,u,1.29511,0,1,,,,,,,,,,,,,,,,,,20,0,20,0,1,,,,,,,,,,,,,,,,,,,,,,,,,,,,,,,,,,,,,,,,,,,,,,,,,,,,,,,,,
,,,,,,,,,,,,,,,,,,,,3,1,2021-01-08_16h55.54.723,CL_C2S3,2020.1.3,Win32,60,,,,,,,,,,,,,,,,,,,,,,,,,,,,,,,,,,,,,,,,,i,1,1.327,0,0,0,0,1,,,,,,,,,,,,,,,,,,,,,,,,,,,,,,,,,,,,,,,,,,,,,,,,,,,,,,,,,,,,,,
,,,,,,,,,,,,,,,,,,,,3,1,2021-01-08_16h55.54.723,CL_C2S3,2020.1.3,Win32,60,,,,,,,,,,,,,2,0,"[99,99,99]",2,0,Hand,i,TR,0,0,21,2,2,0.505337841,99,i,1.327,1,1,,,,,,,,,,,,,,,,,,21,0,21,0,1,,,,,,,,,,,,,,,,,,,,,,,,,,,,,,,,,,,,,,,,,,,,,,,,,,,,,,,,,
,,,,,,,,,,,,,,,,,,,,3,1,2021-01-08_16h55.54.723,CL_C2S3,2020.1.3,Win32,60,,,,,,,,,,,,,,,,,,,,,,,,,,,,,,,,,,,,,,,,,i,1,1.293875,0,0,0,0,1,,,,,,,,,,,,,,,,,,,,,,,,,,,,,,,,,,,,,,,,,,,,,,,,,,,,,,,,,,,,,,
,,,,,,,,,,,,,,,,,,,,3,1,2021-01-08_16h55.54.723,CL_C2S3,2020.1.3,Win32,60,,,,,,,,,,,,,2,0,"[99,99,99]",2,0,Hand,i,TR,0,0,22,2,2,0.199365837,99,i,1.293875,1,1,,,,,,,,,,,,,,,,,,22,0,22,0,1,,,,,,,,,,,,,,,,,,,,,,,,,,,,,,,,,,,,,,,,,,,,,,,,,,,,,,,,,
,,,,,,,,,,,,,,,,,,,,3,1,2021-01-08_16h55.54.723,CL_C2S3,2020.1.3,Win32,60,,,,,,,,,,,,,,,,,,,,,,,,,,,,,,,,,,,,,,,,,u,1,1.077755,0,0,0,0,1,,,,,,,,,,,,,,,,,,,,,,,,,,,,,,,,,,,,,,,,,,,,,,,,,,,,,,,,,,,,,,
,,,,,,,,,,,,,,,,,,,,3,1,2021-01-08_16h55.54.723,CL_C2S3,2020.1.3,Win32,60,,,,,,,,,,,,,1,0,"[99,99,99]",1,1,Hand,u,TR,0,0,23,2,2,0.890578616,99,u,1.077755,1,1,,,,,,,,,,,,,,,,,,23,0,23,0,1,,,,,,,,,,,,,,,,,,,,,,,,,,,,,,,,,,,,,,,,,,,,,,,,,,,,,,,,,
,,,,,,,,,,,,,,,,,,,,3,1,2021-01-08_16h55.54.723,CL_C2S3,2020.1.3,Win32,60,,,,,,,,,,,,,,,,,,,,,,,,,,,,,,,,,,,,,,,,,u,0,1.156145,0,0,0,0,1,,,,,,,,,,,,,,,,,,,,,,,,,,,,,,,,,,,,,,,,,,,,,,,,,,,,,,,,,,,,,,
,,,,,,,,,,,,,,,,,,,,3,1,2021-01-08_16h55.54.723,CL_C2S3,2020.1.3,Win32,60,,,,,,,,,,,,,0,0,"[99,99,99]",0,0,Hand,h,TR,0,0,24,2,2,0.341820606,99,u,1.156145,0,1,,,,,,,,,,,,,,,,,,24,0,24,0,1,,,,,,,,,,,,,,,,,,,,,,,,,,,,,,,,,,,,,,,,,,,,,,,,,,,,,,,,,
,,,,,,,,,,,,,,,,,,,,3,1,2021-01-08_16h55.54.723,CL_C2S3,2020.1.3,Win32,60,,,,,,,,,,,,,,,,,,,,,,,,,,,,,,,,,,,,,,,,,u,1,1.27057,0,0,0,0,1,,,,,,,,,,,,,,,,,,,,,,,,,,,,,,,,,,,,,,,,,,,,,,,,,,,,,,,,,,,,,,
,,,,,,,,,,,,,,,,,,,,3,1,2021-01-08_16h55.54.723,CL_C2S3,2020.1.3,Win32,60,,,,,,,,,,,,,1,0,"[99,99,99]",1,1,Hand,u,TR,0,0,25,2,2,0.826085849,99,u,1.27057,1,1,,,,,,,,,,,,,,,,,,25,0,25,0,1,,,,,,,,,,,,,,,,,,,,,,,,,,,,,,,,,,,,,,,,,,,,,,,,,,,,,,,,,
,,,,,,,,,,,,,,,,,,,,3,1,2021-01-08_16h55.54.723,CL_C2S3,2020.1.3,Win32,60,,,,,,,,,,,,,,,,,,,,,,,,,,,,,,,,,,,,,,,,,h,1,1.27015,0,0,0,0,1,,,,,,,,,,,,,,,,,,,,,,,,,,,,,,,,,,,,,,,,,,,,,,,,,,,,,,,,,,,,,,
,,,,,,,,,,,,,,,,,,,,3,1,2021-01-08_16h55.54.723,CL_C2S3,2020.1.3,Win32,60,,,,,,,,,,,,,0,0,"[99,99,99]",0,0,Hand,h,TR,0,0,26,2,2,0.894949795,99,h,1.27015,1,1,,,,,,,,,,,,,,,,,,26,0,26,0,1,,,,,,,,,,,,,,,,,,,,,,,,,,,,,,,,,,,,,,,,,,,,,,,,,,,,,,,,,
,,,,,,,,,,,,,,,,,,,,3,1,2021-01-08_16h55.54.723,CL_C2S3,2020.1.3,Win32,60,,,,,,,,,,,,,,,,,,,,,,,,,,,,,,,,,,,,,,,,,u,1,1.322585,0,0,0,0,1,,,,,,,,,,,,,,,,,,,,,,,,,,,,,,,,,,,,,,,,,,,,,,,,,,,,,,,,,,,,,,
,,,,,,,,,,,,,,,,,,,,3,1,2021-01-08_16h55.54.723,CL_C2S3,2020.1.3,Win32,60,,,,,,,,,,,,,1,0,"[99,99,99]",1,1,Hand,u,TR,0,0,27,2,2,0.856741323,99,u,1.322585,1,1,,,,,,,,,,,,,,,,,,27,0,27,0,1,,,,,,,,,,,,,,,,,,,,,,,,,,,,,,,,,,,,,,,,,,,,,,,,,,,,,,,,,
,,,,,,,,,,,,,,,,,,,,3,1,2021-01-08_16h55.54.723,CL_C2S3,2020.1.3,Win32,60,,,,,,,,,,,,,,,,,,,,,,,,,,,,,,,,,,,,,,,,,h,1,1.22151,0,0,0,0,1,,,,,,,,,,,,,,,,,,,,,,,,,,,,,,,,,,,,,,,,,,,,,,,,,,,,,,,,,,,,,,
,,,,,,,,,,,,,,,,,,,,3,1,2021-01-08_16h55.54.723,CL_C2S3,2020.1.3,Win32,60,,,,,,,,,,,,,0,0,"[99,99,99]",0,0,Hand,h,TR,0,0,28,2,2,1.121285408,99,h,1.22151,1,1,,,,,,,,,,,,,,,,,,28,0,28,0,1,,,,,,,,,,,,,,,,,,,,,,,,,,,,,,,,,,,,,,,,,,,,,,,,,,,,,,,,,
,,,,,,,,,,,,,,,,,,,,3,1,2021-01-08_16h55.54.723,CL_C2S3,2020.1.3,Win32,60,,,,,,,,,,,,,,,,,,,,,,,,,,,,,,,,,,,,,,,,,i,1,1.25379,0,0,0,0,1,,,,,,,,,,,,,,,,,,,,,,,,,,,,,,,,,,,,,,,,,,,,,,,,,,,,,,,,,,,,,,
,,,,,,,,,,,,,,,,,,,,3,1,2021-01-08_16h55.54.723,CL_C2S3,2020.1.3,Win32,60,,,,,,,,,,,,,2,0,"[99,99,99]",2,0,Hand,i,TR,0,0,29,2,2,0.294330309,99,i,1.25379,1,1,,,,,,,,,,,,,,,,,,29,0,29,0,1,,,,,,,,,,,,,,,,,,,,,,,,,,,,,,,,,,,,,,,,,,,,,,,,,,,,,,,,,
,,,,,,,,,,,,,,,,,,,,3,1,2021-01-08_16h55.54.723,CL_C2S3,2020.1.3,Win32,60,,,,,,,,,,,,,,,,,,,,,,,,,,,,,,,,,,,,,,,,,u,1,1.354265,0,0,0,0,1,,,,,,,,,,,,,,,,,,,,,,,,,,,,,,,,,,,,,,,,,,,,,,,,,,,,,,,,,,,,,,
,,,,,,,,,,,,,,,,,,,,3,1,2021-01-08_16h55.54.723,CL_C2S3,2020.1.3,Win32,60,,,,,,,,,,,,,1,0,"[99,99,99]",1,1,Hand,u,TR,0,0,30,2,2,0.116897403,99,u,1.354265,1,1,,,,,,,,,,,,,,,,,,30,0,30,0,1,,,,,,,,,,,,,,,,,,,,,,,,,,,,,,,,,,,,,,,,,,,,,,,,,,,,,,,,,
,,,,,,,,,,,,,,,,,,,,3,1,2021-01-08_16h55.54.723,CL_C2S3,2020.1.3,Win32,60,,,,,,,,,,,,,,,,,,,,,,,,,,,,,,,,,,,,,,,,,i,1,1.261335,0,0,0,0,1,,,,,,,,,,,,,,,,,,,,,,,,,,,,,,,,,,,,,,,,,,,,,,,,,,,,,,,,,,,,,,
,,,,,,,,,,,,,,,,,,,,3,1,2021-01-08_16h55.54.723,CL_C2S3,2020.1.3,Win32,60,,,,,,,,,,,,,2,0,"[99,99,99]",2,0,Hand,i,TR,0,0,31,2,2,1.005332501,99,i,1.261335,1,1,,,,,,,,,,,,,,,,,,31,0,31,0,1,,,,,,,,,,,,,,,,,,,,,,,,,,,,,,,,,,,,,,,,,,,,,,,,,,,,,,,,,
,,,,,,,,,,,,,,,,,,,,3,1,2021-01-08_16h55.54.723,CL_C2S3,2020.1.3,Win32,60,,,,,,,,,,,,,,,,,,,,,,,,,,,,,,,,,,,,,,,,,i,0,1.328155,0,0,0,0,1,,,,,,,,,,,,,,,,,,,,,,,,,,,,,,,,,,,,,,,,,,,,,,,,,,,,,,,,,,,,,,
,,,,,,,,,,,,,,,,,,,,3,1,2021-01-08_16h55.54.723,CL_C2S3,2020.1.3,Win32,60,,,,,,,,,,,,,0,0,"[99,99,99]",0,0,Hand,h,TR,0,0,32,2,2,0.155842378,99,i,1.328155,0,1,,,,,,,,,,,,,,,,,,32,0,32,0,1,,,,,,,,,,,,,,,,,,,,,,,,,,,,,,,,,,,,,,,,,,,,,,,,,,,,,,,,,
,,,,,,,,,,,,,,,,,,,,3,1,2021-01-08_16h55.54.723,CL_C2S3,2020.1.3,Win32,60,,,,,,,,,,,,,,,,,,,,,,,,,,,,,,,,,,,,,,,,,h,1,1.327675,0,0,0,0,1,,,,,,,,,,,,,,,,,,,,,,,,,,,,,,,,,,,,,,,,,,,,,,,,,,,,,,,,,,,,,,
,,,,,,,,,,,,,,,,,,,,3,1,2021-01-08_16h55.54.723,CL_C2S3,2020.1.3,Win32,60,,,,,,,,,,,,,0,0,"[99,99,99]",0,0,Hand,h,TR,0,0,33,2,2,0.737168576,99,h,1.327675,1,1,,,,,,,,,,,,,,,,,,33,0,33,0,1,,,,,,,,,,,,,,,,,,,,,,,,,,,,,,,,,,,,,,,,,,,,,,,,,,,,,,,,,
,,,,,,,,,,,,,,,,,,,,3,1,2021-01-08_16h55.54.723,CL_C2S3,2020.1.3,Win32,60,,,,,,,,,,,,,,,,,,,,,,,,,,,,,,,,,,,,,,,,,i,0,1.27683,0,0,0,0,1,,,,,,,,,,,,,,,,,,,,,,,,,,,,,,,,,,,,,,,,,,,,,,,,,,,,,,,,,,,,,,
,,,,,,,,,,,,,,,,,,,,3,1,2021-01-08_16h55.54.723,CL_C2S3,2020.1.3,Win32,60,,,,,,,,,,,,,1,0,"[99,99,99]",1,1,Hand,u,TR,0,0,34,2,2,0.012831627,99,i,1.27683,0,1,,,,,,,,,,,,,,,,,,34,0,34,0,1,,,,,,,,,,,,,,,,,,,,,,,,,,,,,,,,,,,,,,,,,,,,,,,,,,,,,,,,,
,,,,,,,,,,,,,,,,,,,,3,1,2021-01-08_16h55.54.723,CL_C2S3,2020.1.3,Win32,60,,,,,,,,,,,,,,,,,,,,,,,,,,,,,,,,,,,,,,,,,i,1,1.22747,0,0,0,0,1,,,,,,,,,,,,,,,,,,,,,,,,,,,,,,,,,,,,,,,,,,,,,,,,,,,,,,,,,,,,,,
,,,,,,,,,,,,,,,,,,,,3,1,2021-01-08_16h55.54.723,CL_C2S3,2020.1.3,Win32,60,,,,,,,,,,,,,2,0,"[99,99,99]",2,0,Hand,i,TR,0,0,35,2,2,1.063687988,99,i,1.22747,1,1,,,,,,,,,,,,,,,,,,35,0,35,0,1,,,,,,,,,,,,,,,,,,,,,,,,,,,,,,,,,,,,,,,,,,,,,,,,,,,,,,,,,
,,,,,,,,,,,,,,,,,,,,3,1,2021-01-08_16h55.54.723,CL_C2S3,2020.1.3,Win32,60,,,,,,,,,,,,,,,,,,,,,,,,,,,,,,,,,,,,,,,,,i,1,1.32781,0,0,0,0,1,,,,,,,,,,,,,,,,,,,,,,,,,,,,,,,,,,,,,,,,,,,,,,,,,,,,,,,,,,,,,,
,,,,,,,,,,,,,,,,,,,,3,1,2021-01-08_16h55.54.723,CL_C2S3,2020.1.3,Win32,60,,,,,,,,,,,,,2,0,"[99,99,99]",2,0,Hand,i,TR,0,0,36,2,2,0.365692477,99,i,1.32781,1,1,,,,,,,,,,,,,,,,,,36,0,36,0,1,,,,,,,,,,,,,,,,,,,,,,,,,,,,,,,,,,,,,,,,,,,,,,,,,,,,,,,,,
,,,,,,,,,,,,,,,,,,,,3,1,2021-01-08_16h55.54.723,CL_C2S3,2020.1.3,Win32,60,,,,,,,,,,,,,,,,,,,,,,,,,,,,,,,,,,,,,,,,,h,1,1.394455,0,0,0,0,1,,,,,,,,,,,,,,,,,,,,,,,,,,,,,,,,,,,,,,,,,,,,,,,,,,,,,,,,,,,,,,
,,,,,,,,,,,,,,,,,,,,3,1,2021-01-08_16h55.54.723,CL_C2S3,2020.1.3,Win32,60,,,,,,,,,,,,,0,0,"[99,99,99]",0,0,Hand,h,TR,0,0,37,2,2,0.569047067,99,h,1.394455,1,1,,,,,,,,,,,,,,,,,,37,0,37,0,1,,,,,,,,,,,,,,,,,,,,,,,,,,,,,,,,,,,,,,,,,,,,,,,,,,,,,,,,,
,,,,,,,,,,,,,,,,,,,,3,1,2021-01-08_16h55.54.723,CL_C2S3,2020.1.3,Win32,60,,,,,,,,,,,,,,,,,,,,,,,,,,,,,,,,,,,,,,,,,h,1,1.294505,0,0,0,0,1,,,,,,,,,,,,,,,,,,,,,,,,,,,,,,,,,,,,,,,,,,,,,,,,,,,,,,,,,,,,,,
,,,,,,,,,,,,,,,,,,,,3,1,2021-01-08_16h55.54.723,CL_C2S3,2020.1.3,Win32,60,,,,,,,,,,,,,0,0,"[99,99,99]",0,0,Hand,h,TR,0,0,38,2,2,0.415345896,99,h,1.294505,1,1,,,,,,,,,,,,,,,,,,38,0,38,0,1,,,,,,,,,,,,,,,,,,,,,,,,,,,,,,,,,,,,,,,,,,,,,,,,,,,,,,,,,
,,,,,,,,,,,,,,,,,,,,3,1,2021-01-08_16h55.54.723,CL_C2S3,2020.1.3,Win32,60,,,,,,,,,,,,,,,,,,,,,,,,,,,,,,,,,,,,,,,,,h,0,1.22796,0,0,0,0,1,,,,,,,,,,,,,,,,,,,,,,,,,,,,,,,,,,,,,,,,,,,,,,,,,,,,,,,,,,,,,,
,,,,,,,,,,,,,,,,,,,,3,1,2021-01-08_16h55.54.723,CL_C2S3,2020.1.3,Win32,60,,,,,,,,,,,,,1,0,"[99,99,99]",1,1,Hand,u,TR,0,0,39,2,2,0.269941573,99,h,1.22796,0,1,,,,,,,,,,,,,,,,,,39,0,39,0,1,,,,,,,,,,,,,,,,,,,,,,,,,,,,,,,,,,,,,,,,,,,,,,,,,,,,,,,,,
,,,,,,,,,,,,,,,,,,,,3,1,2021-01-08_16h55.54.723,CL_C2S3,2020.1.3,Win32,60,,,,,,,,,,,,,,,,,,,,,,,,,,,,,,,,,,,,,,,,,i,1,1.24358,0,0,0,0,1,,,,,,,,,,,,,,,,,,,,,,,,,,,,,,,,,,,,,,,,,,,,,,,,,,,,,,,,,,,,,,
,,,,,,,,,,,,,,,,,,,,3,1,2021-01-08_16h55.54.723,CL_C2S3,2020.1.3,Win32,60,,,,,,,,,,,,,2,0,"[99,99,99]",2,0,Hand,i,TR,0,0,40,2,2,0.242459028,99,i,1.24358,1,1,,,,,,,,,,,,,,,,,,40,0,40,0,1,,,,,,,,,,,,,,,,,,,,,,,,,,,,,,,,,,,,,,,,,,,,,,,,,,,,,,,,,
,,,,,,,,,,,,,,,,,,,,3,1,2021-01-08_16h55.54.723,CL_C2S3,2020.1.3,Win32,60,,,,,,,,,,,,,,,,,,,,,,,,,,,,,,,,,,,,,,,,,u,1,1.18763,0,0,0,0,1,,,,,,,,,,,,,,,,,,,,,,,,,,,,,,,,,,,,,,,,,,,,,,,,,,,,,,,,,,,,,,
,,,,,,,,,,,,,,,,,,,,3,1,2021-01-08_16h55.54.723,CL_C2S3,2020.1.3,Win32,60,,,,,,,,,,,,,1,0,"[99,99,99]",1,1,Hand,u,TR,0,0,41,2,2,0.303226858,99,u,1.18763,1,1,,,,,,,,,,,,,,,,,,41,0,41,0,1,,,,,,,,,,,,,,,,,,,,,,,,,,,,,,,,,,,,,,,,,,,,,,,,,,,,,,,,,
,,,,,,,,,,,,,,,,,,,,3,1,2021-01-08_16h55.54.723,CL_C2S3,2020.1.3,Win32,60,,,,,,,,,,,,,,,,,,,,,,,,,,,,,,,,,,,,,,,,,i,1,1.327895,0,0,0,0,1,,,,,,,,,,,,,,,,,,,,,,,,,,,,,,,,,,,,,,,,,,,,,,,,,,,,,,,,,,,,,,
,,,,,,,,,,,,,,,,,,,,3,1,2021-01-08_16h55.54.723,CL_C2S3,2020.1.3,Win32,60,,,,,,,,,,,,,2,0,"[99,99,99]",2,0,Hand,i,TR,0,0,42,2,2,0.175440652,99,i,1.327895,1,1,,,,,,,,,,,,,,,,,,42,0,42,0,1,,,,,,,,,,,,,,,,,,,,,,,,,,,,,,,,,,,,,,,,,,,,,,,,,,,,,,,,,
,,,,,,,,,,,,,,,,,,,,3,1,2021-01-08_16h55.54.723,CL_C2S3,2020.1.3,Win32,60,,,,,,,,,,,,,,,,,,,,,,,,,,,,,,,,,,,,,,,,,h,1,1.126855,0,0,0,0,1,,,,,,,,,,,,,,,,,,,,,,,,,,,,,,,,,,,,,,,,,,,,,,,,,,,,,,,,,,,,,,
,,,,,,,,,,,,,,,,,,,,3,1,2021-01-08_16h55.54.723,CL_C2S3,2020.1.3,Win32,60,,,,,,,,,,,,,0,0,"[99,99,99]",0,0,Hand,h,TR,0,0,43,2,2,1.005090774,99,h,1.126855,1,1,,,,,,,,,,,,,,,,,,43,0,43,0,1,,,,,,,,,,,,,,,,,,,,,,,,,,,,,,,,,,,,,,,,,,,,,,,,,,,,,,,,,
,,,,,,,,,,,,,,,,,,,,3,1,2021-01-08_16h55.54.723,CL_C2S3,2020.1.3,Win32,60,,,,,,,,,,,,,,,,,,,,,,,,,,,,,,,,,,,,,,,,,u,1,1.06048,0,0,0,0,1,,,,,,,,,,,,,,,,,,,,,,,,,,,,,,,,,,,,,,,,,,,,,,,,,,,,,,,,,,,,,,
,,,,,,,,,,,,,,,,,,,,3,1,2021-01-08_16h55.54.723,CL_C2S3,2020.1.3,Win32,60,,,,,,,,,,,,,1,0,"[99,99,99]",1,1,Hand,u,TR,0,0,44,2,2,1.00401707,99,u,1.06048,1,1,,,,,,,,,,,,,,,,,,44,0,44,0,1,,,,,,,,,,,,,,,,,,,,,,,,,,,,,,,,,,,,,,,,,,,,,,,,,,,,,,,,,
,,,,,,,,,,,,,,,,,,,,3,1,2021-01-08_16h55.54.723,CL_C2S3,2020.1.3,Win32,60,,,,,,,,,,,,,,,,,,,,,,,,,,,,,,,,,,,,,,,,,u,1,1.160265,0,0,0,0,1,,,,,,,,,,,,,,,,,,,,,,,,,,,,,,,,,,,,,,,,,,,,,,,,,,,,,,,,,,,,,,
,,,,,,,,,,,,,,,,,,,,3,1,2021-01-08_16h55.54.723,CL_C2S3,2020.1.3,Win32,60,,,,,,,,,,,,,1,0,"[99,99,99]",1,1,Hand,u,TR,0,0,45,2,2,0.629734458,99,u,1.160265,1,1,,,,,,,,,,,,,,,,,,45,0,45,0,1,,,,,,,,,,,,,,,,,,,,,,,,,,,,,,,,,,,,,,,,,,,,,,,,,,,,,,,,,
,,,,,,,,,,,,,,,,,,,,3,1,2021-01-08_16h55.54.723,CL_C2S3,2020.1.3,Win32,60,,,,,,,,,,,,,,,,,,,,,,,,,,,,,,,,,,,,,,,,,u,0,1.27643,0,0,0,0,1,,,,,,,,,,,,,,,,,,,,,,,,,,,,,,,,,,,,,,,,,,,,,,,,,,,,,,,,,,,,,,
,,,,,,,,,,,,,,,,,,,,3,1,2021-01-08_16h55.54.723,CL_C2S3,2020.1.3,Win32,60,,,,,,,,,,,,,2,0,"[99,99,99]",2,0,Hand,i,TR,0,0,46,2,2,0.020437253,99,u,1.27643,0,1,,,,,,,,,,,,,,,,,,46,0,46,0,1,,,,,,,,,,,,,,,,,,,,,,,,,,,,,,,,,,,,,,,,,,,,,,,,,,,,,,,,,
,,,,,,,,,,,,,,,,,,,,3,1,2021-01-08_16h55.54.723,CL_C2S3,2020.1.3,Win32,60,,,,,,,,,,,,,,,,,,,,,,,,,,,,,,,,,,,,,,,,,i,0,1.17801,0,0,0,0,1,,,,,,,,,,,,,,,,,,,,,,,,,,,,,,,,,,,,,,,,,,,,,,,,,,,,,,,,,,,,,,
,,,,,,,,,,,,,,,,,,,,3,1,2021-01-08_16h55.54.723,CL_C2S3,2020.1.3,Win32,60,,,,,,,,,,,,,0,0,"[99,99,99]",0,0,Hand,h,TR,0,0,47,2,2,0.353686714,99,i,1.17801,0,1,,,,,,,,,,,,,,,,,,47,0,47,0,1,,,,,,,,,,,,,,,,,,,,,,,,,,,,,,,,,,,,,,,,,,,,,,,,,,,,,,,,,
,,,,,,,,,,,,,,,,,,,,3,1,2021-01-08_16h55.54.723,CL_C2S3,2020.1.3,Win32,60,,,,,,,,,,,,,,,,,,,,,,,,,,,,,,,,,,,,,,,,,u,1,1.310095,0,0,0,0,1,,,,,,,,,,,,,,,,,,,,,,,,,,,,,,,,,,,,,,,,,,,,,,,,,,,,,,,,,,,,,,
,,,,,,,,,,,,,,,,,,,,3,1,2021-01-08_16h55.54.723,CL_C2S3,2020.1.3,Win32,60,,,,,,,,,,,,,1,0,"[99,99,99]",1,1,Hand,u,TR,0,0,48,2,2,0.572937545,99,u,1.310095,1,1,,,,,,,,,,,,,,,,,,48,0,48,0,1,,,,,,,,,,,,,,,,,,,,,,,,,,,,,,,,,,,,,,,,,,,,,,,,,,,,,,,,,
,,,,,,,,,,,,,,,,,,,,3,1,2021-01-08_16h55.54.723,CL_C2S3,2020.1.3,Win32,60,,,,,,,,,,,,,,,,,,,,,,,,,,,,,,,,,,,,,,,,,h,1,1.27745,0,0,0,0,1,,,,,,,,,,,,,,,,,,,,,,,,,,,,,,,,,,,,,,,,,,,,,,,,,,,,,,,,,,,,,,
,,,,,,,,,,,,,,,,,,,,3,1,2021-01-08_16h55.54.723,CL_C2S3,2020.1.3,Win32,60,,,,,,,,,,,,,0,0,"[99,99,99]",0,0,Hand,h,TR,0,0,49,2,2,0.028532955,99,h,1.27745,1,1,,,,,,,,,,,,,,,,,,49,0,49,0,1,,,,,,,,,,,,,,,,,,,,,,,,,,,,,,,,,,,,,,,,,,,,,,,,,,,,,,,,,
,,,,,,,,,,,,,,,,,,,,3,1,2021-01-08_16h55.54.723,CL_C2S3,2020.1.3,Win32,60,,,,,,,,,,,,,,,,,,,,,,,,,,,,,,,,,,,,,,,,,i,1,1.181555,0,0,0,0,1,,,,,,,,,,,,,,,,,,,,,,,,,,,,,,,,,,,,,,,,,,,,,,,,,,,,,,,,,,,,,,
,,,,,,,,,,,,,,,,,,,,3,1,2021-01-08_16h55.54.723,CL_C2S3,2020.1.3,Win32,60,,,,,,,,,,,,,2,0,"[99,99,99]",2,0,Hand,i,TR,0,0,50,2,2,0.872891885,99,i,1.181555,1,1,,,,,,,,,,,,,,,,,,50,0,50,0,1,,,,,,,,,,,,,,,,,,,,,,,,,,,,,,,,,,,,,,,,,,,,,,,,,,,,,,,,,
,,,,,,,,,,,,,,,,,,,,3,1,2021-01-08_16h55.54.723,CL_C2S3,2020.1.3,Win32,60,,,,,,,,,,,,,,,,,,,,,,,,,,,,,,,,,,,,,,,,,u,1,1.26889,0,0,0,0,1,,,,,,,,,,,,,,,,,,,,,,,,,,,,,,,,,,,,,,,,,,,,,,,,,,,,,,,,,,,,,,
,,,,,,,,,,,,,,,,,,,,3,1,2021-01-08_16h55.54.723,CL_C2S3,2020.1.3,Win32,60,,,,,,,,,,,,,1,0,"[99,99,99]",1,1,Hand,u,TR,0,0,51,2,2,0.634076671,99,u,1.26889,1,1,,,,,,,,,,,,,,,,,,51,0,51,0,1,,,,,,,,,,,,,,,,,,,,,,,,,,,,,,,,,,,,,,,,,,,,,,,,,,,,,,,,,
,,,,,,,,,,,,,,,,,,,,3,1,2021-01-08_16h55.54.723,CL_C2S3,2020.1.3,Win32,60,,,,,,,,,,,,,,,,,,,,,,,,,,,,,,,,,,,,,,,,,u,0,1.292935,0,0,0,0,1,,,,,,,,,,,,,,,,,,,,,,,,,,,,,,,,,,,,,,,,,,,,,,,,,,,,,,,,,,,,,,
,,,,,,,,,,,,,,,,,,,,3,1,2021-01-08_16h55.54.723,CL_C2S3,2020.1.3,Win32,60,,,,,,,,,,,,,0,0,"[99,99,99]",0,0,Hand,h,TR,0,0,52,2,2,0.091418834,99,u,1.292935,0,1,,,,,,,,,,,,,,,,,,52,0,52,0,1,,,,,,,,,,,,,,,,,,,,,,,,,,,,,,,,,,,,,,,,,,,,,,,,,,,,,,,,,
,,,,,,,,,,,,,,,,,,,,3,1,2021-01-08_16h55.54.723,CL_C2S3,2020.1.3,Win32,60,,,,,,,,,,,,,,,,,,,,,,,,,,,,,,,,,,,,,,,,,i,1,1.27053,0,0,0,0,1,,,,,,,,,,,,,,,,,,,,,,,,,,,,,,,,,,,,,,,,,,,,,,,,,,,,,,,,,,,,,,
,,,,,,,,,,,,,,,,,,,,3,1,2021-01-08_16h55.54.723,CL_C2S3,2020.1.3,Win32,60,,,,,,,,,,,,,2,0,"[99,99,99]",2,0,Hand,i,TR,0,0,53,2,2,0.719679389,99,i,1.27053,1,1,,,,,,,,,,,,,,,,,,53,0,53,0,1,,,,,,,,,,,,,,,,,,,,,,,,,,,,,,,,,,,,,,,,,,,,,,,,,,,,,,,,,
,,,,,,,,,,,,,,,,,,,,3,1,2021-01-08_16h55.54.723,CL_C2S3,2020.1.3,Win32,60,,,,,,,,,,,,,,,,,,,,,,,,,,,,,,,,,,,,,,,,,u,1,1.203815,0,0,0,0,1,,,,,,,,,,,,,,,,,,,,,,,,,,,,,,,,,,,,,,,,,,,,,,,,,,,,,,,,,,,,,,
,,,,,,,,,,,,,,,,,,,,3,1,2021-01-08_16h55.54.723,CL_C2S3,2020.1.3,Win32,60,,,,,,,,,,,,,1,0,"[99,99,99]",1,1,Hand,u,TR,0,0,54,2,2,0.049349604,99,u,1.203815,1,1,,,,,,,,,,,,,,,,,,54,0,54,0,1,,,,,,,,,,,,,,,,,,,,,,,,,,,,,,,,,,,,,,,,,,,,,,,,,,,,,,,,,
,,,,,,,,,,,,,,,,,,,,3,1,2021-01-08_16h55.54.723,CL_C2S3,2020.1.3,Win32,60,,,,,,,,,,,,,,,,,,,,,,,,,,,,,,,,,,,,,,,,,i,1,1.20464,0,0,0,0,1,,,,,,,,,,,,,,,,,,,,,,,,,,,,,,,,,,,,,,,,,,,,,,,,,,,,,,,,,,,,,,
,,,,,,,,,,,,,,,,,,,,3,1,2021-01-08_16h55.54.723,CL_C2S3,2020.1.3,Win32,60,,,,,,,,,,,,,2,0,"[99,99,99]",2,0,Hand,i,TR,0,0,55,2,2,0.994902473,99,i,1.20464,1,1,,,,,,,,,,,,,,,,,,55,0,55,0,1,,,,,,,,,,,,,,,,,,,,,,,,,,,,,,,,,,,,,,,,,,,,,,,,,,,,,,,,,
,,,,,,,,,,,,,,,,,,,,3,1,2021-01-08_16h55.54.723,CL_C2S3,2020.1.3,Win32,60,,,,,,,,,,,,,,,,,,,,,,,,,,,,,,,,,,,,,,,,,u,0,1.226565,0,0,0,0,1,,,,,,,,,,,,,,,,,,,,,,,,,,,,,,,,,,,,,,,,,,,,,,,,,,,,,,,,,,,,,,
,,,,,,,,,,,,,,,,,,,,3,1,2021-01-08_16h55.54.723,CL_C2S3,2020.1.3,Win32,60,,,,,,,,,,,,,0,0,"[99,99,99]",0,0,Hand,h,TR,0,0,56,2,2,-0.072091304,99,u,1.226565,0,1,,,,,,,,,,,,,,,,,,56,0,56,0,1,,,,,,,,,,,,,,,,,,,,,,,,,,,,,,,,,,,,,,,,,,,,,,,,,,,,,,,,,
,,,,,,,,,,,,,,,,,,,,3,1,2021-01-08_16h55.54.723,CL_C2S3,2020.1.3,Win32,60,,,,,,,,,,,,,,,,,,,,,,,,,,,,,,,,,,,,,,,,,i,0,1.22077,0,0,0,0,1,,,,,,,,,,,,,,,,,,,,,,,,,,,,,,,,,,,,,,,,,,,,,,,,,,,,,,,,,,,,,,
,,,,,,,,,,,,,,,,,,,,3,1,2021-01-08_16h55.54.723,CL_C2S3,2020.1.3,Win32,60,,,,,,,,,,,,,0,0,"[99,99,99]",0,0,Hand,h,TR,0,0,57,2,2,0.129834043,99,i,1.22077,0,1,,,,,,,,,,,,,,,,,,57,0,57,0,1,,,,,,,,,,,,,,,,,,,,,,,,,,,,,,,,,,,,,,,,,,,,,,,,,,,,,,,,,
,,,,,,,,,,,,,,,,,,,,3,1,2021-01-08_16h55.54.723,CL_C2S3,2020.1.3,Win32,60,,,,,,,,,,,,,,,,,,,,,,,,,,,,,,,,,,,,,,,,,u,1,1.276015,0,0,0,0,1,,,,,,,,,,,,,,,,,,,,,,,,,,,,,,,,,,,,,,,,,,,,,,,,,,,,,,,,,,,,,,
,,,,,,,,,,,,,,,,,,,,3,1,2021-01-08_16h55.54.723,CL_C2S3,2020.1.3,Win32,60,,,,,,,,,,,,,1,0,"[99,99,99]",1,1,Hand,u,TR,0,0,58,2,2,1.180732146,99,u,1.276015,1,1,,,,,,,,,,,,,,,,,,58,0,58,0,1,,,,,,,,,,,,,,,,,,,,,,,,,,,,,,,,,,,,,,,,,,,,,,,,,,,,,,,,,
,,,,,,,,,,,,,,,,,,,,3,1,2021-01-08_16h55.54.723,CL_C2S3,2020.1.3,Win32,60,,,,,,,,,,,,,,,,,,,,,,,,,,,,,,,,,,,,,,,,,i,1,1.25323,0,0,0,0,1,,,,,,,,,,,,,,,,,,,,,,,,,,,,,,,,,,,,,,,,,,,,,,,,,,,,,,,,,,,,,,
,,,,,,,,,,,,,,,,,,,,3,1,2021-01-08_16h55.54.723,CL_C2S3,2020.1.3,Win32,60,,,,,,,,,,,,,2,0,"[99,99,99]",2,0,Hand,i,TR,0,0,59,2,2,0.47963606,99,i,1.25323,1,1,,,,,,,,,,,,,,,,,,59,0,59,0,1,,,,,,,,,,,,,,,,,,,,,,,,,,,,,,,,,,,,,,,,,,,,,,,,,,,,,,,,,
,,,,,,,,,,,,,,,,,,,,3,1,2021-01-08_16h55.54.723,CL_C2S3,2020.1.3,Win32,60,,,,,,,,,,,,,2,1,"[1,-1,-1]",2,0,Symb,u,CR,0,1,-1,2,1,99,99,h,1.114915,0,1,,,,,,,,,,,,,,,,,,,,,,,,,,,,h,26.36187,h,0,1.114915,media/dknb.png,0,0,0,0,1,,,,,,,,,,,,,,,,,,,,,,,,,,,,,,,,,,,,,,,,,
,,,,,,,,,,,,,,,,,,,,3,1,2021-01-08_16h55.54.723,CL_C2S3,2020.1.3,Win32,60,,,,,,,,,,,,,2,1,"[1,-1,-1]",2,0,Symb,u,CR,0,0,0,2,1,99,99,u,0.334845,1,1,,,,,,,,,,,,,,,,,,,,,,,,,,,,,,u,1,0.334845,media/dknb.png,1,0,1,0,1,,,,,,,,,,,,,,,,,,,,,,,,,,,,,,,,,,,,,,,,,
,,,,,,,,,,,,,,,,,,,,3,1,2021-01-08_16h55.54.723,CL_C2S3,2020.1.3,Win32,60,,,,,,,,,,,,,1,2,"[-1,1,-1]",4,1,Symb,u,CR,0,1,0,2,1,99,99,i,2.50389,0,1,,,,,,,,,,,,,,,,,,,,,,,,,,,,,,i,0,2.50389,media/dfnb.png,2,0,2,0,1,,,,,,,,,,,,,,,,,,,,,,,,,,,,,,,,,,,,,,,,,
,,,,,,,,,,,,,,,,,,,,3,1,2021-01-08_16h55.54.723,CL_C2S3,2020.1.3,Win32,60,,,,,,,,,,,,,1,2,"[-1,1,-1]",4,1,Symb,u,CR,0,2,0,2,1,99,99,h,0.40256,0,1,,,,,,,,,,,,,,,,,,,,,,,,,,,,,,h,0,0.40256,media/dfnb.png,3,0,3,0,1,,,,,,,,,,,,,,,,,,,,,,,,,,,,,,,,,,,,,,,,,
,,,,,,,,,,,,,,,,,,,,3,1,2021-01-08_16h55.54.723,CL_C2S3,2020.1.3,Win32,60,,,,,,,,,,,,,1,2,"[-1,1,-1]",4,1,Symb,u,CR,0,0,1,2,1,99,99,u,0.42093,1,1,,,,,,,,,,,,,,,,,,,,,,,,,,,,,,u,1,0.42093,media/dfnb.png,4,0,4,0,1,,,,,,,,,,,,,,,,,,,,,,,,,,,,,,,,,,,,,,,,,
,,,,,,,,,,,,,,,,,,,,3,1,2021-01-08_16h55.54.723,CL_C2S3,2020.1.3,Win32,60,,,,,,,,,,,,,1,1,"[1,-1,-1]",1,1,Symb,i,CR,0,0,2,2,1,99,99,i,3.219105,1,1,,,,,,,,,,,,,,,,,,,,,,,,,,,,,,i,1,3.219105,media/dfnb.png,5,0,5,0,1,,,,,,,,,,,,,,,,,,,,,,,,,,,,,,,,,,,,,,,,,
,,,,,,,,,,,,,,,,,,,,3,1,2021-01-08_16h55.54.723,CL_C2S3,2020.1.3,Win32,60,,,,,,,,,,,,,0,1,"[1,-1,-1]",0,0,Symb,h,CR,0,0,3,2,1,99,99,h,3.401745,1,1,,,,,,,,,,,,,,,,,,,,,,,,,,,,,,h,1,3.401745,media/dcnb.png,6,0,6,0,1,,,,,,,,,,,,,,,,,,,,,,,,,,,,,,,,,,,,,,,,,
,,,,,,,,,,,,,,,,,,,,3,1,2021-01-08_16h55.54.723,CL_C2S3,2020.1.3,Win32,60,,,,,,,,,,,,,1,1,"[1,-1,-1]",1,1,Symb,i,CR,0,0,4,2,1,99,99,i,2.05273,1,1,,,,,,,,,,,,,,,,,,,,,,,,,,,,,,i,1,2.05273,media/dfnb.png,7,0,7,0,1,,,,,,,,,,,,,,,,,,,,,,,,,,,,,,,,,,,,,,,,,
,,,,,,,,,,,,,,,,,,,,3,1,2021-01-08_16h55.54.723,CL_C2S3,2020.1.3,Win32,60,,,,,,,,,,,,,1,2,"[-1,1,-1]",4,1,Symb,u,CR,0,0,5,2,1,99,99,u,1.334955,1,1,,,,,,,,,,,,,,,,,,,,,,,,,,,,,,u,1,1.334955,media/dfnb.png,8,0,8,0,1,,,,,,,,,,,,,,,,,,,,,,,,,,,,,,,,,,,,,,,,,
,,,,,,,,,,,,,,,,,,,,3,1,2021-01-08_16h55.54.723,CL_C2S3,2020.1.3,Win32,60,,,,,,,,,,,,,0,2,"[-1,1,-1]",3,0,Symb,h,CR,0,0,6,2,1,99,99,h,1.74953,1,1,,,,,,,,,,,,,,,,,,,,,,,,,,,,,,h,1,1.74953,media/dcnb.png,9,0,9,0,1,,,,,,,,,,,,,,,,,,,,,,,,,,,,,,,,,,,,,,,,,
,,,,,,,,,,,,,,,,,,,,3,1,2021-01-08_16h55.54.723,CL_C2S3,2020.1.3,Win32,60,,,,,,,,,,,,,2,2,"[-1,1,-1]",5,0,Symb,i,CR,0,1,6,2,1,99,99,h,2.01398,0,1,,,,,,,,,,,,,,,,,,,,,,,,,,,,,,h,0,2.01398,media/dknb.png,10,0,10,0,1,,,,,,,,,,,,,,,,,,,,,,,,,,,,,,,,,,,,,,,,,
,,,,,,,,,,,,,,,,,,,,3,1,2021-01-08_16h55.54.723,CL_C2S3,2020.1.3,Win32,60,,,,,,,,,,,,,2,2,"[-1,1,-1]",5,0,Symb,i,CR,0,2,6,2,1,99,99,u,0.30117,0,1,,,,,,,,,,,,,,,,,,,,,,,,,,,,,,u,0,0.30117,media/dknb.png,11,0,11,0,1,,,,,,,,,,,,,,,,,,,,,,,,,,,,,,,,,,,,,,,,,
,,,,,,,,,,,,,,,,,,,,3,1,2021-01-08_16h55.54.723,CL_C2S3,2020.1.3,Win32,60,,,,,,,,,,,,,2,2,"[-1,1,-1]",5,0,Symb,i,CR,0,0,7,2,1,99,99,i,2.18449,1,1,,,,,,,,,,,,,,,,,,,,,,,,,,,,,,i,1,2.18449,media/dknb.png,12,0,12,0,1,,,,,,,,,,,,,,,,,,,,,,,,,,,,,,,,,,,,,,,,,
,,,,,,,,,,,,,,,,,,,,3,1,2021-01-08_16h55.54.723,CL_C2S3,2020.1.3,Win32,60,,,,,,,,,,,,,0,1,"[1,-1,-1]",0,0,Symb,h,CR,0,1,7,2,1,99,99,u,2.5644,0,1,,,,,,,,,,,,,,,,,,,,,,,,,,,,,,u,0,2.5644,media/dcnb.png,13,0,13,0,1,,,,,,,,,,,,,,,,,,,,,,,,,,,,,,,,,,,,,,,,,
,,,,,,,,,,,,,,,,,,,,3,1,2021-01-08_16h55.54.723,CL_C2S3,2020.1.3,Win32,60,,,,,,,,,,,,,0,1,"[1,-1,-1]",0,0,Symb,h,CR,0,2,7,2,1,99,99,i,0.81671,0,1,,,,,,,,,,,,,,,,,,,,,,,,,,,,,,i,0,0.81671,media/dcnb.png,14,0,14,0,1,,,,,,,,,,,,,,,,,,,,,,,,,,,,,,,,,,,,,,,,,
,,,,,,,,,,,,,,,,,,,,3,1,2021-01-08_16h55.54.723,CL_C2S3,2020.1.3,Win32,60,,,,,,,,,,,,,0,1,"[1,-1,-1]",0,0,Symb,h,CR,0,0,8,2,1,99,99,h,0.7352,1,1,,,,,,,,,,,,,,,,,,,,,,,,,,,,,,h,1,0.7352,media/dcnb.png,15,0,15,0,1,,,,,,,,,,,,,,,,,,,,,,,,,,,,,,,,,,,,,,,,,
,,,,,,,,,,,,,,,,,,,,3,1,2021-01-08_16h55.54.723,CL_C2S3,2020.1.3,Win32,60,,,,,,,,,,,,,2,2,"[-1,1,-1]",5,0,Symb,i,CR,0,1,8,2,1,99,99,u,1.52165,0,1,,,,,,,,,,,,,,,,,,,,,,,,,,,,,,u,0,1.52165,media/dknb.png,16,0,16,0,1,,,,,,,,,,,,,,,,,,,,,,,,,,,,,,,,,,,,,,,,,
,,,,,,,,,,,,,,,,,,,,3,1,2021-01-08_16h55.54.723,CL_C2S3,2020.1.3,Win32,60,,,,,,,,,,,,,2,2,"[-1,1,-1]",5,0,Symb,i,CR,0,0,9,2,1,99,99,i,1.186065,1,1,,,,,,,,,,,,,,,,,,,,,,,,,,,,,,i,1,1.186065,media/dknb.png,17,0,17,0,1,,,,,,,,,,,,,,,,,,,,,,,,,,,,,,,,,,,,,,,,,
,,,,,,,,,,,,,,,,,,,,3,1,2021-01-08_16h55.54.723,CL_C2S3,2020.1.3,Win32,60,,,,,,,,,,,,,2,1,"[1,-1,-1]",2,0,Symb,u,CR,0,0,10,2,1,99,99,u,5.65247,1,1,,,,,,,,,,,,,,,,,,,,,,,,,,,,,,u,1,5.65247,media/dknb.png,18,0,18,0,1,,,,,,,,,,,,,,,,,,,,,,,,,,,,,,,,,,,,,,,,,
,,,,,,,,,,,,,,,,,,,,3,1,2021-01-08_16h55.54.723,CL_C2S3,2020.1.3,Win32,60,,,,,,,,,,,,,0,2,"[-1,1,-1]",3,0,Symb,h,CR,0,1,10,2,1,99,99,i,1.98921,0,1,,,,,,,,,,,,,,,,,,,,,,,,,,,,,,i,0,1.98921,media/dcnb.png,19,0,19,0,1,,,,,,,,,,,,,,,,,,,,,,,,,,,,,,,,,,,,,,,,,
,,,,,,,,,,,,,,,,,,,,3,1,2021-01-08_16h55.54.723,CL_C2S3,2020.1.3,Win32,60,,,,,,,,,,,,,0,2,"[-1,1,-1]",3,0,Symb,h,CR,0,2,10,2,1,99,99,u,0.93479,0,1,,,,,,,,,,,,,,,,,,,,,,,,,,,,,,u,0,0.93479,media/dcnb.png,20,0,20,0,1,,,,,,,,,,,,,,,,,,,,,,,,,,,,,,,,,,,,,,,,,
,,,,,,,,,,,,,,,,,,,,3,1,2021-01-08_16h55.54.723,CL_C2S3,2020.1.3,Win32,60,,,,,,,,,,,,,0,2,"[-1,1,-1]",3,0,Symb,h,CR,0,0,11,2,1,99,99,h,4.003825,1,1,,,,,,,,,,,,,,,,,,,,,,,,,,,,,,h,1,4.003825,media/dcnb.png,21,0,21,0,1,,,,,,,,,,,,,,,,,,,,,,,,,,,,,,,,,,,,,,,,,
,,,,,,,,,,,,,,,,,,,,3,1,2021-01-08_16h55.54.723,CL_C2S3,2020.1.3,Win32,60,,,,,,,,,,,,,2,2,"[-1,1,-1]",5,0,Symb,i,CR,0,0,12,2,1,99,99,i,5.98441,1,1,,,,,,,,,,,,,,,,,,,,,,,,,,,,,,i,1,5.98441,media/dknb.png,22,0,22,0,1,,,,,,,,,,,,,,,,,,,,,,,,,,,,,,,,,,,,,,,,,
,,,,,,,,,,,,,,,,,,,,3,1,2021-01-08_16h55.54.723,CL_C2S3,2020.1.3,Win32,60,,,,,,,,,,,,,0,1,"[1,-1,-1]",0,0,Symb,h,CR,0,1,12,2,1,99,99,u,4.51867,0,1,,,,,,,,,,,,,,,,,,,,,,,,,,,,,,u,0,4.51867,media/dcnb.png,23,0,23,0,1,,,,,,,,,,,,,,,,,,,,,,,,,,,,,,,,,,,,,,,,,
,,,,,,,,,,,,,,,,,,,,3,1,2021-01-08_16h55.54.723,CL_C2S3,2020.1.3,Win32,60,,,,,,,,,,,,,0,1,"[1,-1,-1]",0,0,Symb,h,CR,0,2,12,2,1,99,99,i,0.30119,0,1,,,,,,,,,,,,,,,,,,,,,,,,,,,,,,i,0,0.30119,media/dcnb.png,24,0,24,0,1,,,,,,,,,,,,,,,,,,,,,,,,,,,,,,,,,,,,,,,,,
,,,,,,,,,,,,,,,,,,,,3,1,2021-01-08_16h55.54.723,CL_C2S3,2020.1.3,Win32,60,,,,,,,,,,,,,0,1,"[1,-1,-1]",0,0,Symb,h,CR,0,0,13,2,1,99,99,h,2.37187,1,1,,,,,,,,,,,,,,,,,,,,,,,,,,,,,,h,1,2.37187,media/dcnb.png,25,0,25,0,1,,,,,,,,,,,,,,,,,,,,,,,,,,,,,,,,,,,,,,,,,
,,,,,,,,,,,,,,,,,,,,3,1,2021-01-08_16h55.54.723,CL_C2S3,2020.1.3,Win32,60,,,,,,,,,,,,,1,2,"[-1,1,-1]",4,1,Symb,u,CR,0,0,14,2,1,99,99,u,2.001405,1,1,,,,,,,,,,,,,,,,,,,,,,,,,,,,,,u,1,2.001405,media/dfnb.png,26,0,26,0,1,,,,,,,,,,,,,,,,,,,,,,,,,,,,,,,,,,,,,,,,,
,,,,,,,,,,,,,,,,,,,,3,1,2021-01-08_16h55.54.723,CL_C2S3,2020.1.3,Win32,60,,,,,,,,,,,,,1,2,"[-1,1,-1]",4,1,Symb,u,CR,0,0,15,2,1,99,99,u,0.78883,1,1,,,,,,,,,,,,,,,,,,,,,,,,,,,,,,u,1,0.78883,media/dfnb.png,27,0,27,0,1,,,,,,,,,,,,,,,,,,,,,,,,,,,,,,,,,,,,,,,,,
,,,,,,,,,,,,,,,,,,,,3,1,2021-01-08_16h55.54.723,CL_C2S3,2020.1.3,Win32,60,,,,,,,,,,,,,1,1,"[1,-1,-1]",1,1,Symb,i,CR,0,0,16,2,1,99,99,i,2.005785,1,1,,,,,,,,,,,,,,,,,,,,,,,,,,,,,,i,1,2.005785,media/dfnb.png,28,0,28,0,1,,,,,,,,,,,,,,,,,,,,,,,,,,,,,,,,,,,,,,,,,
,,,,,,,,,,,,,,,,,,,,3,1,2021-01-08_16h55.54.723,CL_C2S3,2020.1.3,Win32,60,,,,,,,,,,,,,1,1,"[1,-1,-1]",1,1,Symb,i,CR,0,0,17,2,1,99,99,i,1.755315,1,1,,,,,,,,,,,,,,,,,,,,,,,,,,,,,,i,1,1.755315,media/dfnb.png,29,0,29,0,1,,,,,,,,,,,,,,,,,,,,,,,,,,,,,,,,,,,,,,,,,
,,,,,,,,,,,,,,,,,,,,3,1,2021-01-08_16h55.54.723,CL_C2S3,2020.1.3,Win32,60,,,,,,,,,,,,,2,1,"[1,-1,-1]",2,0,Symb,u,CR,0,1,17,2,1,99,99,i,2.00355,0,1,,,,,,,,,,,,,,,,,,,,,,,,,,,,,,i,0,2.00355,media/dknb.png,30,0,30,0,1,,,,,,,,,,,,,,,,,,,,,,,,,,,,,,,,,,,,,,,,,
,,,,,,,,,,,,,,,,,,,,3,1,2021-01-08_16h55.54.723,CL_C2S3,2020.1.3,Win32,60,,,,,,,,,,,,,2,1,"[1,-1,-1]",2,0,Symb,u,CR,0,2,17,2,1,99,99,h,0.273525,0,1,,,,,,,,,,,,,,,,,,,,,,,,,,,,,,h,0,0.273525,media/dknb.png,31,0,31,0,1,,,,,,,,,,,,,,,,,,,,,,,,,,,,,,,,,,,,,,,,,
,,,,,,,,,,,,,,,,,,,,3,1,2021-01-08_16h55.54.723,CL_C2S3,2020.1.3,Win32,60,,,,,,,,,,,,,2,1,"[1,-1,-1]",2,0,Symb,u,CR,0,0,18,2,1,99,99,u,11.65171,1,1,,,,,,,,,,,,,,,,,,,,,,,,,,,,,,u,1,11.65171,media/dknb.png,32,0,32,0,1,,,,,,,,,,,,,,,,,,,,,,,,,,,,,,,,,,,,,,,,,
,,,,,,,,,,,,,,,,,,,,3,1,2021-01-08_16h55.54.723,CL_C2S3,2020.1.3,Win32,60,,,,,,,,,,,,,0,1,"[1,-1,-1]",0,0,Symb,h,CR,0,1,18,2,1,99,99,i,19.130355,0,1,,,,,,,,,,,,,,,,,,,,,,,,,,,,,,i,0,19.130355,media/dcnb.png,33,0,33,0,1,,,,,,,,,,,,,,,,,,,,,,,,,,,,,,,,,,,,,,,,,
,,,,,,,,,,,,,,,,,,,,3,1,2021-01-08_16h55.54.723,CL_C2S3,2020.1.3,Win32,60,,,,,,,,,,,,,0,1,"[1,-1,-1]",0,0,Symb,h,CR,0,0,19,2,1,99,99,h,0.069385,1,1,,,,,,,,,,,,,,,,,,,,,,,,,,,,,,h,1,0.069385,media/dcnb.png,34,0,34,0,1,,,,,,,,,,,,,,,,,,,,,,,,,,,,,,,,,,,,,,,,,
,,,,,,,,,,,,,,,,,,,,3,1,2021-01-08_16h55.54.723,CL_C2S3,2020.1.3,Win32,60,,,,,,,,,,,,,0,2,"[-1,1,-1]",3,0,Symb,h,CR,0,1,19,2,1,99,99,u,2.0008,0,1,,,,,,,,,,,,,,,,,,,,,,,,,,,,,,u,0,2.0008,media/dcnb.png,35,0,35,0,1,,,,,,,,,,,,,,,,,,,,,,,,,,,,,,,,,,,,,,,,,
,,,,,,,,,,,,,,,,,,,,3,1,2021-01-08_16h55.54.723,CL_C2S3,2020.1.3,Win32,60,,,,,,,,,,,,,0,2,"[-1,1,-1]",3,0,Symb,h,CR,0,2,19,2,1,99,99,i,0.45132,0,1,,,,,,,,,,,,,,,,,,,,,,,,,,,,,,i,0,0.45132,media/dcnb.png,36,0,36,0,1,,,,,,,,,,,,,,,,,,,,,,,,,,,,,,,,,,,,,,,,,
,,,,,,,,,,,,,,,,,,,,3,1,2021-01-08_16h55.54.723,CL_C2S3,2020.1.3,Win32,60,,,,,,,,,,,,,0,2,"[-1,1,-1]",3,0,Symb,h,CR,0,0,20,2,1,99,99,h,0.26776,1,1,,,,,,,,,,,,,,,,,,,,,,,,,,,,,,h,1,0.26776,media/dcnb.png,37,0,37,0,1,,,,,,,,,,,,,,,,,,,,,,,,,,,,,,,,,,,,,,,,,
,,,,,,,,,,,,,,,,,,,,3,1,2021-01-08_16h55.54.723,CL_C2S3,2020.1.3,Win32,60,,,,,,,,,,,,,0,2,"[-1,1,-1]",3,0,Symb,h,CR,0,0,21,2,1,99,99,h,1.117715,1,1,,,,,,,,,,,,,,,,,,,,,,,,,,,,,,h,1,1.117715,media/dcnb.png,38,0,38,0,1,,,,,,,,,,,,,,,,,,,,,,,,,,,,,,,,,,,,,,,,,
,,,,,,,,,,,,,,,,,,,,3,1,2021-01-08_16h55.54.723,CL_C2S3,2020.1.3,Win32,60,,,,,,,,,,,,,2,1,"[1,-1,-1]",2,0,Symb,u,CR,0,0,22,2,1,99,99,u,4.10077,1,1,,,,,,,,,,,,,,,,,,,,,,,,,,,,,,u,1,4.10077,media/dknb.png,39,0,39,0,1,,,,,,,,,,,,,,,,,,,,,,,,,,,,,,,,,,,,,,,,,
,,,,,,,,,,,,,,,,,,,,3,1,2021-01-08_16h55.54.723,CL_C2S3,2020.1.3,Win32,60,,,,,,,,,,,,,2,2,"[-1,1,-1]",5,0,Symb,i,CR,0,0,23,2,1,99,99,i,0.91053,1,1,,,,,,,,,,,,,,,,,,,,,,,,,,,,,,i,1,0.91053,media/dknb.png,40,0,40,0,1,,,,,,,,,,,,,,,,,,,,,,,,,,,,,,,,,,,,,,,,,
,,,,,,,,,,,,,,,,,,,,3,1,2021-01-08_16h55.54.723,CL_C2S3,2020.1.3,Win32,60,,,,,,,,,,,,,2,1,"[1,-1,-1]",2,0,Symb,u,CR,0,0,24,2,1,99,99,u,1.138145,1,1,,,,,,,,,,,,,,,,,,,,,,,,,,,,,,u,1,1.138145,media/dknb.png,41,0,41,0,1,,,,,,,,,,,,,,,,,,,,,,,,,,,,,,,,,,,,,,,,,
,,,,,,,,,,,,,,,,,,,,3,1,2021-01-08_16h55.54.723,CL_C2S3,2020.1.3,Win32,60,,,,,,,,,,,,,0,1,"[1,-1,-1]",0,0,Symb,h,CR,0,0,25,2,1,99,99,h,1.16758,1,1,,,,,,,,,,,,,,,,,,,,,,,,,,,,,,h,1,1.16758,media/dcnb.png,42,0,42,0,1,,,,,,,,,,,,,,,,,,,,,,,,,,,,,,,,,,,,,,,,,
,,,,,,,,,,,,,,,,,,,,3,1,2021-01-08_16h55.54.723,CL_C2S3,2020.1.3,Win32,60,,,,,,,,,,,,,2,2,"[-1,1,-1]",5,0,Symb,i,CR,0,0,26,2,1,99,99,i,1.187215,1,1,,,,,,,,,,,,,,,,,,,,,,,,,,,,,,i,1,1.187215,media/dknb.png,43,0,43,0,1,,,,,,,,,,,,,,,,,,,,,,,,,,,,,,,,,,,,,,,,,
,,,,,,,,,,,,,,,,,,,,3,1,2021-01-08_16h55.54.723,CL_C2S3,2020.1.3,Win32,60,,,,,,,,,,,,,0,2,"[-1,1,-1]",3,0,Symb,h,CR,0,0,27,2,1,99,99,h,1.00096,1,1,,,,,,,,,,,,,,,,,,,,,,,,,,,,,,h,1,1.00096,media/dcnb.png,44,0,44,0,1,,,,,,,,,,,,,,,,,,,,,,,,,,,,,,,,,,,,,,,,,
,,,,,,,,,,,,,,,,,,,,3,1,2021-01-08_16h55.54.723,CL_C2S3,2020.1.3,Win32,60,,,,,,,,,,,,,1,2,"[-1,1,-1]",4,1,Symb,u,CR,0,0,28,2,1,99,99,u,2.617515,1,1,,,,,,,,,,,,,,,,,,,,,,,,,,,,,,u,1,2.617515,media/dfnb.png,45,0,45,0,1,,,,,,,,,,,,,,,,,,,,,,,,,,,,,,,,,,,,,,,,,
,,,,,,,,,,,,,,,,,,,,3,1,2021-01-08_16h55.54.723,CL_C2S3,2020.1.3,Win32,60,,,,,,,,,,,,,1,1,"[1,-1,-1]",1,1,Symb,i,CR,0,0,29,2,1,99,99,i,0.75118,1,1,,,,,,,,,,,,,,,,,,,,,,,,,,,,,,i,1,0.75118,media/dfnb.png,46,0,46,0,1,,,,,,,,,,,,,,,,,,,,,,,,,,,,,,,,,,,,,,,,,
,,,,,,,,,,,,,,,,,,,,3,1,2021-01-08_16h55.54.723,CL_C2S3,2020.1.3,Win32,60,,,,,,,,,,,,,1,1,"[1,-1,-1]",1,1,Symb,i,CR,0,0,30,2,1,99,99,i,0.78442,1,1,,,,,,,,,,,,,,,,,,,,,,,,,,,,,,i,1,0.78442,media/dfnb.png,47,0,47,0,1,,,,,,,,,,,,,,,,,,,,,,,,,,,,,,,,,,,,,,,,,
,,,,,,,,,,,,,,,,,,,,3,1,2021-01-08_16h55.54.723,CL_C2S3,2020.1.3,Win32,60,,,,,,,,,,,,,2,1,"[1,-1,-1]",2,0,Symb,u,CR,0,0,31,2,1,99,99,u,5.26732,1,1,,,,,,,,,,,,,,,,,,,,,,,,,,,,,,u,1,5.26732,media/dknb.png,48,0,48,0,1,,,,,,,,,,,,,,,,,,,,,,,,,,,,,,,,,,,,,,,,,
,,,,,,,,,,,,,,,,,,,,3,1,2021-01-08_16h55.54.723,CL_C2S3,2020.1.3,Win32,60,,,,,,,,,,,,,1,2,"[-1,1,-1]",4,1,Symb,u,CR,0,0,32,2,1,99,99,u,1.620495,1,1,,,,,,,,,,,,,,,,,,,,,,,,,,,,,,u,1,1.620495,media/dfnb.png,49,0,49,0,1,,,,,,,,,,,,,,,,,,,,,,,,,,,,,,,,,,,,,,,,,
,,,,,,,,,,,,,,,,,,,,3,1,2021-01-08_16h55.54.723,CL_C2S3,2020.1.3,Win32,60,,,,,,,,,,,,,1,1,"[1,-1,-1]",1,1,Symb,i,CR,0,0,33,2,1,99,99,i,1.536815,1,1,,,,,,,,,,,,,,,,,,,,,,,,,,,,,,i,1,1.536815,media/dfnb.png,50,0,50,0,1,,,,,,,,,,,,,,,,,,,,,,,,,,,,,,,,,,,,,,,,,
,,,,,,,,,,,,,,,,,,,,3,1,2021-01-08_16h55.54.723,CL_C2S3,2020.1.3,Win32,60,,,,,,,,,,,,,1,2,"[-1,1,-1]",4,1,Symb,u,CR,0,0,34,2,1,99,99,u,1.33422,1,1,,,,,,,,,,,,,,,,,,,,,,,,,,,,,,u,1,1.33422,media/dfnb.png,51,0,51,0,1,,,,,,,,,,,,,,,,,,,,,,,,,,,,,,,,,,,,,,,,,
,,,,,,,,,,,,,,,,,,,,3,1,2021-01-08_16h55.54.723,CL_C2S3,2020.1.3,Win32,60,,,,,,,,,,,,,2,2,"[-1,1,-1]",5,0,Symb,i,CR,0,0,35,2,1,99,99,i,1.66772,1,1,,,,,,,,,,,,,,,,,,,,,,,,,,,,,,i,1,1.66772,media/dknb.png,52,0,52,0,1,,,,,,,,,,,,,,,,,,,,,,,,,,,,,,,,,,,,,,,,,
,,,,,,,,,,,,,,,,,,,,3,1,2021-01-08_16h55.54.723,CL_C2S3,2020.1.3,Win32,60,,,,,,,,,,,,,0,2,"[-1,1,-1]",3,0,Symb,h,CR,0,0,36,2,1,99,99,h,1.31778,1,1,,,,,,,,,,,,,,,,,,,,,,,,,,,,,,h,1,1.31778,media/dcnb.png,53,0,53,0,1,,,,,,,,,,,,,,,,,,,,,,,,,,,,,,,,,,,,,,,,,
,,,,,,,,,,,,,,,,,,,,3,1,2021-01-08_16h55.54.723,CL_C2S3,2020.1.3,Win32,60,,,,,,,,,,,,,0,1,"[1,-1,-1]",0,0,Symb,h,CR,0,0,37,2,1,99,99,h,0.834405,1,1,,,,,,,,,,,,,,,,,,,,,,,,,,,,,,h,1,0.834405,media/dcnb.png,54,0,54,0,1,,,,,,,,,,,,,,,,,,,,,,,,,,,,,,,,,,,,,,,,,
,,,,,,,,,,,,,,,,,,,,3,1,2021-01-08_16h55.54.723,CL_C2S3,2020.1.3,Win32,60,,,,,,,,,,,,,2,1,"[1,-1,-1]",2,0,Symb,u,CR,0,0,38,2,1,99,99,u,1.26776,1,1,,,,,,,,,,,,,,,,,,,,,,,,,,,,,,u,1,1.26776,media/dknb.png,55,0,55,0,1,,,,,,,,,,,,,,,,,,,,,,,,,,,,,,,,,,,,,,,,,
,,,,,,,,,,,,,,,,,,,,3,1,2021-01-08_16h55.54.723,CL_C2S3,2020.1.3,Win32,60,,,,,,,,,,,,,2,2,"[-1,1,-1]",5,0,Symb,i,CR,0,0,39,2,1,99,99,i,0.80125,1,1,,,,,,,,,,,,,,,,,,,,,,,,,,,,,,i,1,0.80125,media/dknb.png,56,0,56,0,1,,,,,,,,,,,,,,,,,,,,,,,,,,,,,,,,,,,,,,,,,
,,,,,,,,,,,,,,,,,,,,3,1,2021-01-08_16h55.54.723,CL_C2S3,2020.1.3,Win32,60,,,,,,,,,,,,,0,2,"[-1,1,-1]",3,0,Symb,h,CR,0,0,40,2,1,99,99,h,1.450875,1,1,,,,,,,,,,,,,,,,,,,,,,,,,,,,,,h,1,1.450875,media/dcnb.png,57,0,57,0,1,,,,,,,,,,,,,,,,,,,,,,,,,,,,,,,,,,,,,,,,,
,,,,,,,,,,,,,,,,,,,,3,1,2021-01-08_16h55.54.723,CL_C2S3,2020.1.3,Win32,60,,,,,,,,,,,,,0,1,"[1,-1,-1]",0,0,Symb,h,CR,0,0,41,2,1,99,99,h,0.70099,1,1,,,,,,,,,,,,,,,,,,,,,,,,,,,,,,h,1,0.70099,media/dcnb.png,58,0,58,0,1,,,,,,,,,,,,,,,,,,,,,,,,,,,,,,,,,,,,,,,,,
,,,,,,,,,,,,,,,,,,,,3,1,2021-01-08_16h55.54.723,CL_C2S3,2020.1.3,Win32,60,,,,,,,,,,,,,1,1,"[1,-1,-1]",1,1,Symb,i,CR,0,0,42,2,1,99,99,i,1.067665,1,1,,,,,,,,,,,,,,,,,,,,,,,,,,,,,,i,1,1.067665,media/dfnb.png,59,0,59,0,1,,,,,,,,,,,,,,,,,,,,,,,,,,,,,,,,,,,,,,,,,
,,,,,,,,,,,,,,,,,,,,3,1,2021-01-08_16h55.54.723,CL_C2S3,2020.1.3,Win32,60,,,,,,,,,,,,,2,2,"[-1,1,-1]",5,0,Symb,i,CR,0,0,43,2,1,99,99,i,2.15116,1,1,,,,,,,,,,,,,,,,,,,,,,,,,,,,,,i,1,2.15116,media/dknb.png,60,0,60,0,1,,,,,,,,,,,,,,,,,,,,,,,,,,,,,,,,,,,,,,,,,
,,,,,,,,,,,,,,,,,,,,3,1,2021-01-08_16h55.54.723,CL_C2S3,2020.1.3,Win32,60,,,,,,,,,,,,,0,1,"[1,-1,-1]",0,0,Symb,h,CR,0,0,44,2,1,99,99,h,1.800865,1,1,,,,,,,,,,,,,,,,,,,,,,,,,,,,,,h,1,1.800865,media/dcnb.png,61,0,61,0,1,,,,,,,,,,,,,,,,,,,,,,,,,,,,,,,,,,,,,,,,,
,,,,,,,,,,,,,,,,,,,,3,1,2021-01-08_16h55.54.723,CL_C2S3,2020.1.3,Win32,60,,,,,,,,,,,,,2,2,"[-1,1,-1]",5,0,Symb,i,CR,0,1,44,2,1,99,99,u,5.35141,0,1,,,,,,,,,,,,,,,,,,,,,,,,,,,,,,u,0,5.35141,media/dknb.png,62,0,62,0,1,,,,,,,,,,,,,,,,,,,,,,,,,,,,,,,,,,,,,,,,,
,,,,,,,,,,,,,,,,,,,,3,1,2021-01-08_16h55.54.723,CL_C2S3,2020.1.3,Win32,60,,,,,,,,,,,,,2,2,"[-1,1,-1]",5,0,Symb,i,CR,0,0,45,2,1,99,99,i,0.085455,1,1,,,,,,,,,,,,,,,,,,,,,,,,,,,,,,i,1,0.085455,media/dknb.png,63,0,63,0,1,,,,,,,,,,,,,,,,,,,,,,,,,,,,,,,,,,,,,,,,,
,,,,,,,,,,,,,,,,,,,,3,1,2021-01-08_16h55.54.723,CL_C2S3,2020.1.3,Win32,60,,,,,,,,,,,,,0,2,"[-1,1,-1]",3,0,Symb,h,CR,0,0,46,2,1,99,99,h,1.13818,1,1,,,,,,,,,,,,,,,,,,,,,,,,,,,,,,h,1,1.13818,media/dcnb.png,64,0,64,0,1,,,,,,,,,,,,,,,,,,,,,,,,,,,,,,,,,,,,,,,,,
,,,,,,,,,,,,,,,,,,,,3,1,2021-01-08_16h55.54.723,CL_C2S3,2020.1.3,Win32,60,,,,,,,,,,,,,0,2,"[-1,1,-1]",3,0,Symb,h,CR,0,0,47,2,1,99,99,h,0.505715,1,1,,,,,,,,,,,,,,,,,,,,,,,,,,,,,,h,1,0.505715,media/dcnb.png,65,0,65,0,1,,,,,,,,,,,,,,,,,,,,,,,,,,,,,,,,,,,,,,,,,
,,,,,,,,,,,,,,,,,,,,3,1,2021-01-08_16h55.54.723,CL_C2S3,2020.1.3,Win32,60,,,,,,,,,,,,,1,1,"[1,-1,-1]",1,1,Symb,i,CR,0,0,48,2,1,99,99,i,1.804595,1,1,,,,,,,,,,,,,,,,,,,,,,,,,,,,,,i,1,1.804595,media/dfnb.png,66,0,66,0,1,,,,,,,,,,,,,,,,,,,,,,,,,,,,,,,,,,,,,,,,,
,,,,,,,,,,,,,,,,,,,,3,1,2021-01-08_16h55.54.723,CL_C2S3,2020.1.3,Win32,60,,,,,,,,,,,,,1,2,"[-1,1,-1]",4,1,Symb,u,CR,0,0,49,2,1,99,99,u,0.6033,1,1,,,,,,,,,,,,,,,,,,,,,,,,,,,,,,u,1,0.6033,media/dfnb.png,67,0,67,0,1,,,,,,,,,,,,,,,,,,,,,,,,,,,,,,,,,,,,,,,,,
,,,,,,,,,,,,,,,,,,,,3,1,2021-01-08_16h55.54.723,CL_C2S3,2020.1.3,Win32,60,,,,,,,,,,,,,0,1,"[1,-1,-1]",0,0,Symb,h,CR,0,0,50,2,1,99,99,h,0.771455,1,1,,,,,,,,,,,,,,,,,,,,,,,,,,,,,,h,1,0.771455,media/dcnb.png,68,0,68,0,1,,,,,,,,,,,,,,,,,,,,,,,,,,,,,,,,,,,,,,,,,
,,,,,,,,,,,,,,,,,,,,3,1,2021-01-08_16h55.54.723,CL_C2S3,2020.1.3,Win32,60,,,,,,,,,,,,,2,1,"[1,-1,-1]",2,0,Symb,u,CR,0,0,51,2,1,99,99,u,2.401315,1,1,,,,,,,,,,,,,,,,,,,,,,,,,,,,,,u,1,2.401315,media/dknb.png,69,0,69,0,1,,,,,,,,,,,,,,,,,,,,,,,,,,,,,,,,,,,,,,,,,
,,,,,,,,,,,,,,,,,,,,3,1,2021-01-08_16h55.54.723,CL_C2S3,2020.1.3,Win32,60,,,,,,,,,,,,,2,2,"[-1,1,-1]",5,0,Symb,i,RT,0,0,0,2,1,99,99,i,1.034495,1,1,,,,,,,,h,1.13433,,,,,,,,,,,,,,,,,,,,,i,1,1.034495,media/dknb.png,,,,,,h,14.399475,0,0,0,0,1,,,,,,,,,,,,,,,,,,,,,,,,,,,,,,,,,,
,,,,,,,,,,,,,,,,,,,,3,1,2021-01-08_16h55.54.723,CL_C2S3,2020.1.3,Win32,60,,,,,,,,,,,,,0,2,"[-1,1,-1]",3,0,Symb,h,RT,0,0,1,2,1,99,99,h,0.70359,1,1,,,,,,,,,,,,,,,,,,,,,,,,,,,,,,h,1,0.70359,media/dcnb.png,,,,,,,,1,0,1,0,1,,,,,,,,,,,,,,,,,,,,,,,,,,,,,,,,,,
,,,,,,,,,,,,,,,,,,,,3,1,2021-01-08_16h55.54.723,CL_C2S3,2020.1.3,Win32,60,,,,,,,,,,,,,0,2,"[-1,1,-1]",3,0,Symb,h,RT,0,0,2,2,1,99,99,h,0.534615,1,1,,,,,,,,,,,,,,,,,,,,,,,,,,,,,,h,1,0.534615,media/dcnb.png,,,,,,,,2,0,2,0,1,,,,,,,,,,,,,,,,,,,,,,,,,,,,,,,,,,
,,,,,,,,,,,,,,,,,,,,3,1,2021-01-08_16h55.54.723,CL_C2S3,2020.1.3,Win32,60,,,,,,,,,,,,,2,2,"[-1,1,-1]",5,0,Symb,i,RT,0,0,3,2,1,99,99,i,0.70168,1,1,,,,,,,,,,,,,,,,,,,,,,,,,,,,,,i,1,0.70168,media/dknb.png,,,,,,,,3,0,3,0,1,,,,,,,,,,,,,,,,,,,,,,,,,,,,,,,,,,
,,,,,,,,,,,,,,,,,,,,3,1,2021-01-08_16h55.54.723,CL_C2S3,2020.1.3,Win32,60,,,,,,,,,,,,,2,1,"[1,-1,-1]",2,0,Symb,u,RT,0,0,4,2,1,99,99,u,0.602405,1,1,,,,,,,,,,,,,,,,,,,,,,,,,,,,,,u,1,0.602405,media/dknb.png,,,,,,,,4,0,4,0,1,,,,,,,,,,,,,,,,,,,,,,,,,,,,,,,,,,
,,,,,,,,,,,,,,,,,,,,3,1,2021-01-08_16h55.54.723,CL_C2S3,2020.1.3,Win32,60,,,,,,,,,,,,,1,1,"[1,-1,-1]",1,1,Symb,i,RT,0,0,5,2,1,99,99,i,0.639545,1,1,,,,,,,,,,,,,,,,,,,,,,,,,,,,,,i,1,0.639545,media/dfnb.png,,,,,,,,5,0,5,0,1,,,,,,,,,,,,,,,,,,,,,,,,,,,,,,,,,,
,,,,,,,,,,,,,,,,,,,,3,1,2021-01-08_16h55.54.723,CL_C2S3,2020.1.3,Win32,60,,,,,,,,,,,,,0,1,"[1,-1,-1]",0,0,Symb,h,RT,0,0,6,2,1,99,99,h,0.560785,1,1,,,,,,,,,,,,,,,,,,,,,,,,,,,,,,h,1,0.560785,media/dcnb.png,,,,,,,,6,0,6,0,1,,,,,,,,,,,,,,,,,,,,,,,,,,,,,,,,,,
,,,,,,,,,,,,,,,,,,,,3,1,2021-01-08_16h55.54.723,CL_C2S3,2020.1.3,Win32,60,,,,,,,,,,,,,2,1,"[1,-1,-1]",2,0,Symb,u,RT,0,0,7,2,1,99,99,u,0.9202,1,1,,,,,,,,,,,,,,,,,,,,,,,,,,,,,,u,1,0.9202,media/dknb.png,,,,,,,,7,0,7,0,1,,,,,,,,,,,,,,,,,,,,,,,,,,,,,,,,,,
,,,,,,,,,,,,,,,,,,,,3,1,2021-01-08_16h55.54.723,CL_C2S3,2020.1.3,Win32,60,,,,,,,,,,,,,1,2,"[-1,1,-1]",4,1,Symb,u,RT,0,0,8,2,1,99,99,u,0.819995,1,1,,,,,,,,,,,,,,,,,,,,,,,,,,,,,,u,1,0.819995,media/dfnb.png,,,,,,,,8,0,8,0,1,,,,,,,,,,,,,,,,,,,,,,,,,,,,,,,,,,
,,,,,,,,,,,,,,,,,,,,3,1,2021-01-08_16h55.54.723,CL_C2S3,2020.1.3,Win32,60,,,,,,,,,,,,,1,1,"[1,-1,-1]",1,1,Symb,i,RT,0,0,9,2,1,99,99,i,0.50364,1,1,,,,,,,,,,,,,,,,,,,,,,,,,,,,,,i,1,0.50364,media/dfnb.png,,,,,,,,9,0,9,0,1,,,,,,,,,,,,,,,,,,,,,,,,,,,,,,,,,,
,,,,,,,,,,,,,,,,,,,,3,1,2021-01-08_16h55.54.723,CL_C2S3,2020.1.3,Win32,60,,,,,,,,,,,,,1,2,"[-1,1,-1]",4,1,Symb,u,RT,0,0,10,2,1,99,99,u,0.638955,1,1,,,,,,,,,,,,,,,,,,,,,,,,,,,,,,u,1,0.638955,media/dfnb.png,,,,,,,,10,0,10,0,1,,,,,,,,,,,,,,,,,,,,,,,,,,,,,,,,,,
,,,,,,,,,,,,,,,,,,,,3,1,2021-01-08_16h55.54.723,CL_C2S3,2020.1.3,Win32,60,,,,,,,,,,,,,0,1,"[1,-1,-1]",0,0,Symb,h,RT,0,0,11,2,1,99,99,h,0.635035,1,1,,,,,,,,,,,,,,,,,,,,,,,,,,,,,,h,1,0.635035,media/dcnb.png,,,,,,,,11,0,11,0,1,,,,,,,,,,,,,,,,,,,,,,,,,,,,,,,,,,
,,,,,,,,,,,,,,,,,,,,3,1,2021-01-08_16h55.54.723,CL_C2S3,2020.1.3,Win32,60,,,,,,,,,,,,,2,1,"[1,-1,-1]",2,0,Symb,u,RT,0,0,12,2,1,99,99,u,0.952225,1,1,,,,,,,,,,,,,,,,,,,,,,,,,,,,,,u,1,0.952225,media/dknb.png,,,,,,,,12,0,12,0,1,,,,,,,,,,,,,,,,,,,,,,,,,,,,,,,,,,
,,,,,,,,,,,,,,,,,,,,3,1,2021-01-08_16h55.54.723,CL_C2S3,2020.1.3,Win32,60,,,,,,,,,,,,,1,1,"[1,-1,-1]",1,1,Symb,i,RT,0,0,13,2,1,99,99,i,1.353305,1,1,,,,,,,,,,,,,,,,,,,,,,,,,,,,,,i,1,1.353305,media/dfnb.png,,,,,,,,13,0,13,0,1,,,,,,,,,,,,,,,,,,,,,,,,,,,,,,,,,,
,,,,,,,,,,,,,,,,,,,,3,1,2021-01-08_16h55.54.723,CL_C2S3,2020.1.3,Win32,60,,,,,,,,,,,,,0,2,"[-1,1,-1]",3,0,Symb,h,RT,0,0,14,2,1,99,99,h,0.745,1,1,,,,,,,,,,,,,,,,,,,,,,,,,,,,,,h,1,0.745,media/dcnb.png,,,,,,,,14,0,14,0,1,,,,,,,,,,,,,,,,,,,,,,,,,,,,,,,,,,
,,,,,,,,,,,,,,,,,,,,3,1,2021-01-08_16h55.54.723,CL_C2S3,2020.1.3,Win32,60,,,,,,,,,,,,,0,2,"[-1,1,-1]",3,0,Symb,h,RT,0,0,15,2,1,99,99,h,0.50202,1,1,,,,,,,,,,,,,,,,,,,,,,,,,,,,,,h,1,0.50202,media/dcnb.png,,,,,,,,15,0,15,0,1,,,,,,,,,,,,,,,,,,,,,,,,,,,,,,,,,,
,,,,,,,,,,,,,,,,,,,,3,1,2021-01-08_16h55.54.723,CL_C2S3,2020.1.3,Win32,60,,,,,,,,,,,,,1,1,"[1,-1,-1]",1,1,Symb,i,RT,0,0,16,2,1,99,99,i,2.17566,1,1,,,,,,,,,,,,,,,,,,,,,,,,,,,,,,i,1,2.17566,media/dfnb.png,,,,,,,,16,0,16,0,1,,,,,,,,,,,,,,,,,,,,,,,,,,,,,,,,,,
,,,,,,,,,,,,,,,,,,,,3,1,2021-01-08_16h55.54.723,CL_C2S3,2020.1.3,Win32,60,,,,,,,,,,,,,2,2,"[-1,1,-1]",5,0,Symb,i,RT,0,0,17,2,1,99,99,u,1.0862,0,1,,,,,,,,,,,,,,,,,,,,,,,,,,,,,,u,0,1.0862,media/dknb.png,,,,,,,,17,0,17,0,1,,,,,,,,,,,,,,,,,,,,,,,,,,,,,,,,,,
,,,,,,,,,,,,,,,,,,,,3,1,2021-01-08_16h55.54.723,CL_C2S3,2020.1.3,Win32,60,,,,,,,,,,,,,0,1,"[1,-1,-1]",0,0,Symb,h,RT,0,0,18,2,1,99,99,h,0.685425,1,1,,,,,,,,,,,,,,,,,,,,,,,,,,,,,,h,1,0.685425,media/dcnb.png,,,,,,,,18,0,18,0,1,,,,,,,,,,,,,,,,,,,,,,,,,,,,,,,,,,
,,,,,,,,,,,,,,,,,,,,3,1,2021-01-08_16h55.54.723,CL_C2S3,2020.1.3,Win32,60,,,,,,,,,,,,,1,2,"[-1,1,-1]",4,1,Symb,u,RT,0,0,19,2,1,99,99,u,0.887995,1,1,,,,,,,,,,,,,,,,,,,,,,,,,,,,,,u,1,0.887995,media/dfnb.png,,,,,,,,19,0,19,0,1,,,,,,,,,,,,,,,,,,,,,,,,,,,,,,,,,,
,,,,,,,,,,,,,,,,,,,,3,1,2021-01-08_16h55.54.723,CL_C2S3,2020.1.3,Win32,60,,,,,,,,,,,,,1,2,"[-1,1,-1]",4,1,Symb,u,RT,0,0,20,2,1,99,99,u,0.48911,1,1,,,,,,,,,,,,,,,,,,,,,,,,,,,,,,u,1,0.48911,media/dfnb.png,,,,,,,,20,0,20,0,1,,,,,,,,,,,,,,,,,,,,,,,,,,,,,,,,,,
,,,,,,,,,,,,,,,,,,,,3,1,2021-01-08_16h55.54.723,CL_C2S3,2020.1.3,Win32,60,,,,,,,,,,,,,0,1,"[1,-1,-1]",0,0,Symb,h,RT,0,0,21,2,1,99,99,h,0.63803,1,1,,,,,,,,,,,,,,,,,,,,,,,,,,,,,,h,1,0.63803,media/dcnb.png,,,,,,,,21,0,21,0,1,,,,,,,,,,,,,,,,,,,,,,,,,,,,,,,,,,
,,,,,,,,,,,,,,,,,,,,3,1,2021-01-08_16h55.54.723,CL_C2S3,2020.1.3,Win32,60,,,,,,,,,,,,,2,1,"[1,-1,-1]",2,0,Symb,u,RT,0,0,22,2,1,99,99,u,1.155875,1,1,,,,,,,,,,,,,,,,,,,,,,,,,,,,,,u,1,1.155875,media/dknb.png,,,,,,,,22,0,22,0,1,,,,,,,,,,,,,,,,,,,,,,,,,,,,,,,,,,
,,,,,,,,,,,,,,,,,,,,3,1,2021-01-08_16h55.54.723,CL_C2S3,2020.1.3,Win32,60,,,,,,,,,,,,,2,2,"[-1,1,-1]",5,0,Symb,i,RT,0,0,23,2,1,99,99,i,0.68926,1,1,,,,,,,,,,,,,,,,,,,,,,,,,,,,,,i,1,0.68926,media/dknb.png,,,,,,,,23,0,23,0,1,,,,,,,,,,,,,,,,,,,,,,,,,,,,,,,,,,
,,,,,,,,,,,,,,,,,,,,3,1,2021-01-08_16h55.54.723,CL_C2S3,2020.1.3,Win32,60,,,,,,,,,,,,,0,1,"[1,-1,-1]",0,0,Symb,h,RT,0,0,24,2,1,99,99,h,0.66822,1,1,,,,,,,,,,,,,,,,,,,,,,,,,,,,,,h,1,0.66822,media/dcnb.png,,,,,,,,24,0,24,0,1,,,,,,,,,,,,,,,,,,,,,,,,,,,,,,,,,,
,,,,,,,,,,,,,,,,,,,,3,1,2021-01-08_16h55.54.723,CL_C2S3,2020.1.3,Win32,60,,,,,,,,,,,,,2,1,"[1,-1,-1]",2,0,Symb,u,RT,0,0,25,2,1,99,99,i,0.95245,0,1,,,,,,,,,,,,,,,,,,,,,,,,,,,,,,i,0,0.95245,media/dknb.png,,,,,,,,25,0,25,0,1,,,,,,,,,,,,,,,,,,,,,,,,,,,,,,,,,,
,,,,,,,,,,,,,,,,,,,,3,1,2021-01-08_16h55.54.723,CL_C2S3,2020.1.3,Win32,60,,,,,,,,,,,,,1,1,"[1,-1,-1]",1,1,Symb,i,RT,0,0,26,2,1,99,99,i,1.786805,1,1,,,,,,,,,,,,,,,,,,,,,,,,,,,,,,i,1,1.786805,media/dfnb.png,,,,,,,,26,0,26,0,1,,,,,,,,,,,,,,,,,,,,,,,,,,,,,,,,,,
,,,,,,,,,,,,,,,,,,,,3,1,2021-01-08_16h55.54.723,CL_C2S3,2020.1.3,Win32,60,,,,,,,,,,,,,0,2,"[-1,1,-1]",3,0,Symb,h,RT,0,0,27,2,1,99,99,h,1.121705,1,1,,,,,,,,,,,,,,,,,,,,,,,,,,,,,,h,1,1.121705,media/dcnb.png,,,,,,,,27,0,27,0,1,,,,,,,,,,,,,,,,,,,,,,,,,,,,,,,,,,
,,,,,,,,,,,,,,,,,,,,3,1,2021-01-08_16h55.54.723,CL_C2S3,2020.1.3,Win32,60,,,,,,,,,,,,,2,2,"[-1,1,-1]",5,0,Symb,i,RT,0,0,28,2,1,99,99,i,4.008615,1,1,,,,,,,,,,,,,,,,,,,,,,,,,,,,,,i,1,4.008615,media/dknb.png,,,,,,,,28,0,28,0,1,,,,,,,,,,,,,,,,,,,,,,,,,,,,,,,,,,
,,,,,,,,,,,,,,,,,,,,3,1,2021-01-08_16h55.54.723,CL_C2S3,2020.1.3,Win32,60,,,,,,,,,,,,,1,2,"[-1,1,-1]",4,1,Symb,u,RT,0,0,29,2,1,99,99,u,0.61844,1,1,,,,,,,,,,,,,,,,,,,,,,,,,,,,,,u,1,0.61844,media/dfnb.png,,,,,,,,29,0,29,0,1,,,,,,,,,,,,,,,,,,,,,,,,,,,,,,,,,,
,,,,,,,,,,,,,,,,,,,,3,1,2021-01-08_16h55.54.723,CL_C2S3,2020.1.3,Win32,60,,,,,,,,,,,,,1,2,"[-1,1,-1]",4,1,Symb,u,RT,0,0,30,2,1,99,99,u,0.58673,1,1,,,,,,,,,,,,,,,,,,,,,,,,,,,,,,u,1,0.58673,media/dfnb.png,,,,,,,,30,0,30,0,1,,,,,,,,,,,,,,,,,,,,,,,,,,,,,,,,,,
,,,,,,,,,,,,,,,,,,,,3,1,2021-01-08_16h55.54.723,CL_C2S3,2020.1.3,Win32,60,,,,,,,,,,,,,0,2,"[-1,1,-1]",3,0,Symb,h,RT,0,0,31,2,1,99,99,h,0.65509,1,1,,,,,,,,,,,,,,,,,,,,,,,,,,,,,,h,1,0.65509,media/dcnb.png,,,,,,,,31,0,31,0,1,,,,,,,,,,,,,,,,,,,,,,,,,,,,,,,,,,
,,,,,,,,,,,,,,,,,,,,3,1,2021-01-08_16h55.54.723,CL_C2S3,2020.1.3,Win32,60,,,,,,,,,,,,,1,1,"[1,-1,-1]",1,1,Symb,i,RT,0,0,32,2,1,99,99,i,1.221655,1,1,,,,,,,,,,,,,,,,,,,,,,,,,,,,,,i,1,1.221655,media/dfnb.png,,,,,,,,32,0,32,0,1,,,,,,,,,,,,,,,,,,,,,,,,,,,,,,,,,,
,,,,,,,,,,,,,,,,,,,,3,1,2021-01-08_16h55.54.723,CL_C2S3,2020.1.3,Win32,60,,,,,,,,,,,,,1,1,"[1,-1,-1]",1,1,Symb,i,RT,0,0,33,2,1,99,99,i,0.61924,1,1,,,,,,,,,,,,,,,,,,,,,,,,,,,,,,i,1,0.61924,media/dfnb.png,,,,,,,,33,0,33,0,1,,,,,,,,,,,,,,,,,,,,,,,,,,,,,,,,,,
,,,,,,,,,,,,,,,,,,,,3,1,2021-01-08_16h55.54.723,CL_C2S3,2020.1.3,Win32,60,,,,,,,,,,,,,2,1,"[1,-1,-1]",2,0,Symb,u,RT,0,0,34,2,1,99,99,u,1.087045,1,1,,,,,,,,,,,,,,,,,,,,,,,,,,,,,,u,1,1.087045,media/dknb.png,,,,,,,,34,0,34,0,1,,,,,,,,,,,,,,,,,,,,,,,,,,,,,,,,,,
,,,,,,,,,,,,,,,,,,,,3,1,2021-01-08_16h55.54.723,CL_C2S3,2020.1.3,Win32,60,,,,,,,,,,,,,0,1,"[1,-1,-1]",0,0,Symb,h,RT,0,0,35,2,1,99,99,h,0.802895,1,1,,,,,,,,,,,,,,,,,,,,,,,,,,,,,,h,1,0.802895,media/dcnb.png,,,,,,,,35,0,35,0,1,,,,,,,,,,,,,,,,,,,,,,,,,,,,,,,,,,
,,,,,,,,,,,,,,,,,,,,3,1,2021-01-08_16h55.54.723,CL_C2S3,2020.1.3,Win32,60,,,,,,,,,,,,,2,2,"[-1,1,-1]",5,0,Symb,i,RT,0,0,36,2,1,99,99,i,0.88905,1,1,,,,,,,,,,,,,,,,,,,,,,,,,,,,,,i,1,0.88905,media/dknb.png,,,,,,,,36,0,36,0,1,,,,,,,,,,,,,,,,,,,,,,,,,,,,,,,,,,
,,,,,,,,,,,,,,,,,,,,3,1,2021-01-08_16h55.54.723,CL_C2S3,2020.1.3,Win32,60,,,,,,,,,,,,,0,2,"[-1,1,-1]",3,0,Symb,h,RT,0,0,37,2,1,99,99,h,0.60246,1,1,,,,,,,,,,,,,,,,,,,,,,,,,,,,,,h,1,0.60246,media/dcnb.png,,,,,,,,37,0,37,0,1,,,,,,,,,,,,,,,,,,,,,,,,,,,,,,,,,,
,,,,,,,,,,,,,,,,,,,,3,1,2021-01-08_16h55.54.723,CL_C2S3,2020.1.3,Win32,60,,,,,,,,,,,,,2,2,"[-1,1,-1]",5,0,Symb,i,RT,0,0,38,2,1,99,99,i,0.73779,1,1,,,,,,,,,,,,,,,,,,,,,,,,,,,,,,i,1,0.73779,media/dknb.png,,,,,,,,38,0,38,0,1,,,,,,,,,,,,,,,,,,,,,,,,,,,,,,,,,,
,,,,,,,,,,,,,,,,,,,,3,1,2021-01-08_16h55.54.723,CL_C2S3,2020.1.3,Win32,60,,,,,,,,,,,,,2,1,"[1,-1,-1]",2,0,Symb,u,RT,0,0,39,2,1,99,99,u,0.90371,1,1,,,,,,,,,,,,,,,,,,,,,,,,,,,,,,u,1,0.90371,media/dknb.png,,,,,,,,39,0,39,0,1,,,,,,,,,,,,,,,,,,,,,,,,,,,,,,,,,,
,,,,,,,,,,,,,,,,,,,,3,1,2021-01-08_16h55.54.723,CL_C2S3,2020.1.3,Win32,60,,,,,,,,,,,,,1,2,"[-1,1,-1]",4,1,Symb,u,RT,0,0,40,2,1,99,99,u,0.70346,1,1,,,,,,,,,,,,,,,,,,,,,,,,,,,,,,u,1,0.70346,media/dfnb.png,,,,,,,,40,0,40,0,1,,,,,,,,,,,,,,,,,,,,,,,,,,,,,,,,,,
